sequence,timestamp_ms,accel_x,accel_y,accel_z,gyro_x,gyro_y,gyro_z
6448,19004154,210,-1661,-1139,1160,-111,-110
6449,19004164,235,-1656,-1140,1140,-144,-108
6450,19004174,198,-1656,-1123,1108,-181,-84
6451,19004184,185,-1680,-1122,1104,-197,-67
6452,19004194,213,-1655,-1120,1073,-207,-78
6453,19004204,229,-1644,-1124,1046,-220,-70
6454,19004214,193,-1669,-1115,1065,-252,-25
6455,19004224,212,-1655,-1141,1077,-258,-22
6456,19004234,215,-1639,-1155,1057,-285,-11
6457,19004244,201,-1634,-1167,1074,-304,5
6458,19004254,178,-1672,-1140,1096,-322,31
6459,19004264,185,-1688,-1134,1105,-316,48
6460,19004274,187,-1687,-1157,1061,-308,14
6461,19004284,159,-1670,-1185,1069,-300,-20
6462,19004294,168,-1689,-1181,1164,-303,-40
6463,19004304,187,-1701,-1182,1248,-289,-26
6464,19004314,156,-1691,-1184,1276,-260,-30
6465,19004324,145,-1736,-1177,1323,-222,-23
6466,19004334,193,-1727,-1222,1314,-194,-29
6467,19004344,115,-1627,-1373,1236,-217,30
6468,19004354,142,-1602,-1349,1200,-286,108
6469,19004364,137,-1628,-1281,1374,-186,285
6470,19004374,187,-1682,-1129,1672,-73,385
6471,19004384,172,-1666,-991,1730,-53,454
6472,19004394,150,-1705,-933,1657,-111,401
6473,19004404,187,-1703,-881,1550,-174,256
6474,19004401,188,-1703,-881,1550,-175,323
6475,19004411,185,-1720,-838,1459,-209,228
6476,19004421,163,-1713,-869,1352,-266,147
6477,19004431,151,-1728,-942,1203,-321,107
6478,19004441,150,-1679,-1001,1109,-373,146
6479,19004451,115,-1765,-1029,1259,-391,223
6480,19004461,68,-1821,-1044,1271,-396,314
6481,19004471,102,-1767,-1064,1137,-379,300
6482,19004481,78,-1756,-1056,1107,-347,231
6483,19004491,68,-1742,-1030,1124,-287,182
6484,19004501,72,-1747,-1010,1105,-277,131
6485,19004511,97,-1761,-1008,1080,-279,87
6486,19004521,58,-1788,-1007,1081,-287,66
6487,19004531,47,-1772,-1019,1039,-297,24
6488,19004541,82,-1750,-1015,986,-301,-3
6489,19004551,78,-1732,-1042,954,-296,-36
6490,19004561,60,-1724,-1023,958,-278,-39
6491,19004571,95,-1724,-1020,1001,-248,-13
6492,19004581,100,-1717,-1025,1001,-292,38
6493,19004591,50,-1738,-1089,980,-372,194
6494,19004601,-6,-1744,-1119,976,-358,243
6495,19004611,39,-1767,-1097,1136,-233,161
6496,19004621,46,-1763,-1056,1213,-163,99
6497,19004631,12,-1756,-1028,1204,-166,94
6498,19004641,9,-1762,-1045,1167,-187,92
6499,19004651,16,-1757,-1050,1115,-207,0
6500,19004647,16,-1757,-1050,1116,-208,84
6501,19004657,-33,-1863,-1130,1130,-195,84
6502,19004667,-50,-1785,-1060,1082,-209,158
6503,19004677,16,-1765,-1038,1177,-132,108
6504,19004687,49,-1728,-1023,1142,-126,107
6505,19004697,22,-1701,-1035,1134,-114,110
6506,19004707,-33,-1782,-1014,1145,-166,195
6507,19004717,-39,-1839,-1013,1086,-201,232
6508,19004727,-11,-1774,-959,1037,-206,153
6509,19004737,15,-1690,-951,1087,-136,44
6510,19004747,-30,-1650,-949,993,-114,-53
6511,19004757,81,-1609,-913,810,-76,-87
6512,19004767,36,-1855,-792,1161,-177,144
6513,19004777,57,-1760,-949,868,-255,-165
6514,19004787,101,-1769,-947,814,-286,-182
6515,19004797,62,-1777,-964,823,-277,-203
6516,19004807,63,-1777,-992,744,-262,-234
6517,19004817,69,-1761,-1046,627,-267,-241
6518,19004827,52,-1741,-1099,527,-275,-236
6519,19004837,25,-1713,-1115,538,-264,-220
6520,19004847,36,-1709,-1111,598,-233,-193
6521,19004857,47,-1717,-1112,646,-203,-196
6522,19004867,32,-1698,-1110,681,-198,-209
6523,19004877,25,-1706,-1102,733,-204,-207
6524,19004887,55,-1713,-1091,761,-233,-200
6525,19004897,67,-1691,-1095,746,-252,-256
6526,19004894,68,-1692,-1095,747,-252,-203
6527,19004904,17,-1683,-1089,734,-260,-186
6528,19004914,29,-1696,-1065,762,-257,-159
6529,19004924,49,-1702,-1062,782,-254,-138
6530,19004934,4,-1717,-1050,783,-282,-119
6531,19004944,18,-1749,-1059,781,-312,-137
6532,19004954,55,-1728,-1082,736,-370,-157
6533,19004964,67,-1692,-1121,721,-422,-198
6534,19004974,48,-1661,-1157,729,-413,-255
6535,19004984,64,-1643,-1156,795,-353,-238
6536,19004994,97,-1638,-1145,820,-321,-194
6537,19005004,65,-1632,-1144,816,-322,-142
6538,19005014,66,-1632,-1147,807,-335,-103
6539,19005024,78,-1613,-1152,808,-350,-61
6540,19005034,66,-1656,-1176,848,-368,25
6541,19005044,2,-1673,-1241,883,-349,51
6542,19005054,-2,-1670,-1249,984,-219,-15
6543,19005064,35,-1664,-1196,1132,-64,-113
6544,19005074,78,-1680,-1160,1200,-33,-173
6545,19005084,35,-1663,-1150,1200,-102,-154
6546,19005094,72,-1659,-1133,1184,-171,-121
6547,19005104,61,-1666,-1124,1165,-197,-106
6548,19005114,37,-1695,-1099,1158,-179,-95
6549,19005124,64,-1696,-1093,1117,-181,-106
6550,19005134,81,-1723,-1107,1064,-215,-116
6551,19005144,16,-1739,-1147,999,-260,-256
6552,19005140,17,-1740,-1147,999,-260,-118
6553,19005150,-52,-1821,-1177,969,-267,-148
6554,19005160,-165,-2107,-1317,960,-276,-209
6555,19005170,-178,-1975,-1364,783,-314,-247
6556,19005180,-217,-2009,-1536,693,-313,-711
6557,19005190,-473,-2398,-1717,819,-114,-623
6558,19005200,-460,-2465,-1634,1157,98,-676
6559,19005210,-574,-2570,-1609,1589,291,-942
6560,19005220,-715,-2552,-1648,1779,328,-1104
6561,19005230,-735,-2464,-1523,1857,374,-1479
6562,19005240,-1000,-2468,-1438,2055,442,-1611
6563,19005250,-840,-2357,-1194,2607,452,-1567
6564,19005260,-637,-2294,-902,3454,265,-1711
6565,19005270,-430,-2219,-710,4364,-15,-2018
6566,19005280,-209,-2127,-444,5302,-267,-2331
6567,19005290,63,-2140,-102,6367,-439,-2537
6568,19005300,204,-2213,230,7046,-949,-2410
6569,19005310,254,-2278,445,7423,-1614,-2198
6570,19005320,161,-2289,608,7585,-2315,-1906
6571,19005330,233,-2261,764,7817,-2866,-1768
6572,19005340,250,-2228,922,8138,-3349,-1739
6573,19005350,369,-2170,1096,8407,-3543,-1806
6574,19005360,504,-2059,1380,8442,-3563,-1847
6575,19005370,683,-1842,1510,8234,-3769,-1770
6576,19005380,717,-1693,1579,7921,-4143,-1566
6577,19005390,659,-1572,1584,7633,-4582,-1281
6578,19005387,660,-1573,1585,7634,-4583,-1173
6579,19005397,641,-1469,1486,7389,-5092,-755
6580,19005407,602,-1442,1377,7243,-5692,-457
6581,19005417,454,-1483,1190,7094,-6150,-192
6582,19005427,418,-1544,1029,6983,-6122,-32
6583,19005437,403,-1665,921,7021,-5924,22
6584,19005447,379,-1773,806,6892,-5682,229
6585,19005457,328,-1812,582,6588,-5518,504
6586,19005467,393,-1713,337,6164,-5487,709
6587,19005477,425,-1626,141,5761,-5477,786
6588,19005487,469,-1643,77,5493,-5279,961
6589,19005497,457,-1772,102,5247,-4872,1221
6590,19005507,571,-1825,105,4946,-4388,1402
6591,19005517,603,-1828,71,4677,-4068,1411
6592,19005527,624,-1871,14,4588,-3883,1420
6593,19005537,536,-1958,-125,4494,-3692,1456
6594,19005547,512,-2087,-127,4581,-3447,1431
6595,19005557,535,-2158,9,4491,-3047,1312
6596,19005567,602,-2145,164,4189,-2617,1246
6597,19005577,718,-2097,400,3848,-2295,1116
6598,19005587,852,-1972,550,3513,-2097,883
6599,19005597,853,-1882,562,3183,-1931,730
6600,19005607,888,-1816,620,2976,-1799,672
6601,19005617,929,-1814,605,2796,-1646,665
6602,19005627,865,-1857,553,2672,-1585,744
6603,19005637,789,-1915,521,2617,-1618,768
6604,19005634,789,-1915,522,2618,-1618,878
6605,19005644,805,-2006,576,2509,-1553,910
6606,19005654,833,-1993,696,2415,-1354,806
6607,19005664,870,-1886,802,2283,-1080,483
6608,19005674,996,-1678,887,2167,-770,62
6609,19005684,1113,-1495,933,2130,-631,-222
6610,19005694,1145,-1401,851,2106,-653,-295
6611,19005704,1077,-1352,868,2092,-742,-114
6612,19005714,1111,-1395,951,1988,-658,5
6613,19005724,1123,-1456,1044,1739,-516,29
6614,19005734,1130,-1448,1061,1374,-445,-12
6615,19005744,1198,-1341,916,928,-484,-146
6616,19005754,1231,-1145,760,582,-549,-187
6617,19005764,1264,-1035,717,616,-512,-182
6618,19005774,1254,-1009,762,792,-471,-120
6619,19005784,1284,-1078,905,1007,-447,48
6620,19005794,1281,-1138,1034,1192,-428,136
6621,19005804,1262,-1211,1006,1276,-487,119
6622,19005814,1246,-1221,929,1295,-640,150
6623,19005824,1156,-1245,850,1287,-644,226
6624,19005834,1137,-1316,969,1319,-408,156
6625,19005844,1152,-1335,1151,1366,-170,51
6626,19005854,1189,-1350,1191,1299,-72,-31
6627,19005864,1212,-1339,1292,1222,-151,-18
6628,19005874,1244,-1320,1170,1153,-192,-52
6629,19005884,1234,-1282,1119,1101,-313,-256
6630,19005880,1234,-1283,1120,1102,-314,-51
6631,19005890,1291,-1229,1112,1156,-289,-58
6632,19005900,1290,-1199,1148,1136,-257,-122
6633,19005910,1312,-1195,1099,1116,-287,-125
6634,19005920,1324,-1195,1146,1058,-417,-126
6635,19005930,1320,-1204,1087,1019,-453,-202
6636,19005940,1276,-1180,923,917,-504,-220
6637,19005950,1274,-1178,840,931,-576,-172
6638,19005960,1265,-1176,809,961,-556,-117
6639,19005970,1216,-1220,900,1064,-420,-69
6640,19005980,1248,-1213,1041,1182,-227,-145
6641,19005990,1302,-1154,1116,1162,-158,-177
6642,19006000,1325,-1119,1155,1107,-153,-161
6643,19006010,1317,-1068,1094,1008,-159,-123
6644,19006020,1319,-1084,1047,994,-235,-12
6645,19006030,1326,-1130,992,1007,-273,84
6646,19006040,1283,-1232,992,1034,-275,168
6647,19006050,1232,-1332,1037,1053,-250,240
6648,19006060,1222,-1374,1108,1050,-253,199
6649,19006070,1207,-1383,1199,973,-219,94
6650,19006080,1168,-1426,1275,821,-167,25
6651,19006090,1198,-1422,1234,719,-189,-46
6652,19006100,1202,-1399,1176,703,-356,-104
6653,19006110,1159,-1411,1055,717,-472,-126
6654,19006120,1119,-1472,932,752,-521,-112
6655,19006130,1152,-1439,780,633,-504,-256
6656,19006127,1152,-1440,781,633,-505,-124
6657,19006137,1170,-1440,701,514,-496,-182
6658,19006147,1149,-1396,611,374,-432,-259
6659,19006157,1167,-1346,565,273,-380,-316
6660,19006167,1185,-1325,516,163,-324,-355
6661,19006177,1096,-1333,421,9,-281,-323
6662,19006187,1068,-1327,398,-157,-217,-278
6663,19006197,1021,-1342,385,-402,-77,-240
6664,19006207,925,-1460,348,-559,115,-144
6665,19006217,791,-1652,388,-701,333,0
6666,19006227,767,-1791,392,-1129,542,0
6667,19006237,845,-1816,300,-1866,775,-134
6668,19006247,852,-1825,113,-2672,968,-186
6669,19006257,793,-1771,-99,-3394,1112,-164
6670,19006267,809,-1686,-281,-4028,1443,-239
6671,19006277,756,-1600,-406,-4561,1906,-249
6672,19006287,615,-1534,-462,-4992,2458,-211
6673,19006297,530,-1517,-318,-5172,2952,-101
6674,19006307,575,-1514,-84,-5352,3492,-31
6675,19006317,534,-1545,119,-5823,4033,18
6676,19006327,526,-1610,301,-6487,4491,248
6677,19006337,638,-1651,455,-7281,4915,384
6678,19006347,636,-1672,591,-7895,5112,623
6679,19006357,733,-1627,578,-8411,5228,746
6680,19006367,925,-1510,441,-8805,5097,782
6681,19006377,968,-1456,270,-8846,4532,768
6682,19006374,968,-1457,271,-8845,4532,932
6683,19006384,968,-1422,108,-8748,3918,1147
6684,19006394,968,-1415,4,-8603,3433,1399
6685,19006404,991,-1448,-50,-8276,3058,1691
6686,19006414,1037,-1561,-111,-7961,2769,1902
6687,19006424,1030,-1640,-302,-7626,2392,2233
6688,19006434,930,-1705,-702,-7234,1829,2483
6689,19006444,844,-1679,-1138,-6620,1189,2628
6690,19006454,691,-1728,-1431,-5507,459,2722
6691,19006464,609,-1783,-1701,-4279,-172,2769
6692,19006474,543,-1817,-1822,-3032,-647,2809
6693,19006484,477,-2001,-1763,-1790,-814,2797
6694,19006494,407,-2141,-1635,-891,-773,2781
6695,19006504,356,-2174,-1473,-248,-621,2639
6696,19006514,400,-2172,-1321,216,-447,2396
6697,19006524,348,-2224,-1270,348,-351,2208
6698,19006534,306,-2194,-1313,339,-484,2190
6699,19006544,380,-2066,-1376,314,-724,2025
6700,19006554,452,-1967,-1416,407,-941,1799
6701,19006564,447,-1920,-1435,515,-1077,1679
6702,19006574,516,-1834,-1427,585,-1102,1546
6703,19006584,571,-1763,-1370,665,-1103,1438
6704,19006594,582,-1741,-1313,811,-1103,1373
6705,19006604,576,-1721,-1266,937,-1066,1258
6706,19006614,584,-1649,-1259,943,-1020,1116
6707,19006624,625,-1597,-1239,986,-1009,768
6708,19006620,625,-1598,-1239,987,-1010,966
6709,19006630,553,-1938,-1322,1013,-979,795
6710,19006640,-573,-2331,-2170,497,-999,832
6711,19006650,760,-2089,-1759,-1449,-997,90
6712,19006660,73,-1401,-1833,20,-339,-699
6713,19006670,542,-1528,-1791,140,-22,-747
6714,19006680,421,-1250,-1839,140,-89,-580
6715,19006690,500,-1182,-1857,319,-150,-568
6716,19006700,462,-1139,-1819,592,-150,-480
6717,19006710,526,-1213,-1635,934,4,-440
6718,19006720,637,-1168,-1430,1179,275,-551
6719,19006730,638,-1187,-1283,1268,433,-704
6720,19006740,657,-1187,-1175,1312,482,-817
6721,19006750,546,-1185,-1236,1258,406,-860
6722,19006760,456,-1225,-1270,1302,209,-801
6723,19006770,396,-1215,-1358,1179,48,-873
6724,19006780,396,-1202,-1425,1011,-68,-914
6725,19006790,425,-1190,-1471,967,-96,-930
6726,19006800,426,-1099,-1536,915,-92,-918
6727,19006810,276,-1156,-1666,1079,-154,-834
6728,19006820,276,-1251,-1763,1359,-291,-709
6729,19006830,197,-1364,-1861,1511,-334,-673
6730,19006840,47,-1391,-1989,1393,-424,-509
6731,19006850,-28,-1438,-2126,1174,-446,-417
6732,19006860,-10,-1410,-2099,1153,-333,-279
6733,19006870,2,-1398,-1968,1210,-146,-256
6734,19006867,3,-1398,-1968,1210,-147,-223
6735,19006877,34,-1438,-1852,1231,-14,-227
6736,19006887,44,-1698,-1815,1293,53,-178
6737,19006897,-123,-1665,-1964,849,-1,-127
6738,19006907,-108,-1383,-2009,159,70,-243
6739,19006917,-46,-1185,-1980,81,154,-277
6740,19006927,69,-1126,-1829,665,275,-11
6741,19006937,136,-952,-1763,1248,163,293
6742,19006947,288,-771,-1647,1750,-132,587
6743,19006957,458,-720,-1380,2090,-423,1160
6744,19006967,706,-944,-955,2466,-601,1758
6745,19006977,1027,-1081,-416,2434,-727,1936
6746,19006987,1369,-1007,-380,1835,-856,1398
6747,19006997,1228,-1239,-828,1078,-1395,999
6748,19007007,939,-951,-1077,806,-1900,786
6749,19007017,550,-1275,-1693,-398,-1909,690
6750,19007027,410,-1478,-1768,-23,-1746,547
6751,19007037,172,-1511,-1825,-39,-1468,549
6752,19007047,245,-1239,-1669,276,-968,100
6753,19007057,916,-1421,-1277,885,-154,-382
6754,19007067,728,-1211,-1068,981,422,-579
6755,19007077,801,-1170,-1008,855,600,-813
6756,19007087,430,-1289,-1134,700,402,-748
6757,19007097,185,-1284,-1300,607,259,-691
6758,19007107,166,-1389,-1458,579,43,-816
6759,19007117,60,-1429,-1658,634,-166,-1024
6760,19007114,61,-1430,-1658,635,-167,-894
6761,19007124,-21,-1436,-1897,542,-456,-830
6762,19007134,-106,-1410,-2129,456,-634,-702
6763,19007144,-187,-1303,-2199,343,-636,-479
6764,19007154,-122,-1238,-2081,483,-309,-448
6765,19007164,53,-1399,-1924,832,149,-552
6766,19007174,23,-1598,-2013,904,339,-647
6767,19007184,-48,-1225,-2139,-92,194,-630
6768,19007194,2,-1106,-2174,-182,93,-640
6769,19007204,-20,-953,-2149,423,130,-380
6770,19007214,91,-811,-2029,1124,165,-237
6771,19007224,248,-609,-1878,1438,156,-3
6772,19007234,336,-623,-1584,1860,-8,825
6773,19007244,470,-945,-1189,2524,-197,1584
6774,19007254,635,-1205,-792,2765,-324,1650
6775,19007264,949,-1110,-656,2322,-342,935
6776,19007274,1064,-1052,-697,1858,-493,342
6777,19007284,1068,-1755,-984,1662,-881,200
6778,19007294,661,-1242,-1304,357,-1129,155
6779,19007304,706,-1192,-1396,234,-1239,84
6780,19007314,465,-1485,-1549,850,-779,-63
6781,19007324,192,-1583,-1613,672,-670,136
6782,19007334,208,-1578,-1611,614,-489,-231
6783,19007344,252,-1461,-1595,581,-258,-529
6784,19007354,237,-1381,-1530,687,-92,-744
6785,19007364,316,-1216,-1450,737,-14,-1024
6786,19007361,317,-1217,-1450,738,-14,-959
6787,19007371,386,-1138,-1406,887,-7,-1072
6788,19007381,335,-1151,-1526,1084,-168,-1025
6789,19007391,254,-1074,-1712,847,-417,-868
6790,19007401,208,-1078,-1847,661,-540,-649
6791,19007411,170,-1067,-1920,516,-492,-452
6792,19007421,149,-1008,-1923,521,-391,-323
6793,19007431,143,-1059,-1920,682,-331,-273
6794,19007441,210,-1033,-1867,779,-315,-211
6795,19007451,245,-1056,-1787,894,-323,-139
6796,19007461,242,-1079,-1713,993,-357,-64
6797,19007471,283,-1115,-1675,1054,-349,-52
6798,19007481,305,-1124,-1643,1116,-345,-23
6799,19007491,281,-1133,-1638,1160,-358,-19
6800,19007501,273,-1127,-1656,1236,-370,36
6801,19007511,291,-1149,-1657,1337,-393,137
6802,19007521,298,-1189,-1636,1466,-420,239
6803,19007531,258,-1192,-1630,1473,-415,291
6804,19007541,273,-1190,-1642,1429,-396,269
6805,19007551,272,-1214,-1669,1447,-356,233
6806,19007561,248,-1206,-1693,1438,-300,190
6807,19007571,239,-1206,-1685,1465,-215,131
6808,19007581,239,-1219,-1702,1427,-161,117
6809,19007591,246,-1225,-1695,1361,-147,164
6810,19007601,159,-1345,-1730,1361,-144,193
6811,19007611,179,-1291,-1722,1220,-153,256
6812,19007607,179,-1291,-1722,1220,-153,355
6813,19007617,325,-1300,-1472,1469,-167,340
6814,19007627,332,-1284,-1354,1402,-185,334
6815,19007637,386,-1250,-1257,1365,-240,162
6816,19007647,419,-1294,-1214,1355,-399,76
6817,19007657,421,-1284,-1287,1165,-523,-38
6818,19007667,303,-1325,-1391,992,-671,-70
6819,19007677,262,-1327,-1536,939,-726,-131
6820,19007687,231,-1301,-1630,908,-668,-196
6821,19007697,229,-1319,-1612,1007,-484,-309
6822,19007707,156,-1322,-1612,1102,-357,-391
6823,19007717,222,-1305,-1579,1128,-361,-435
6824,19007727,257,-1351,-1592,1036,-377,-499
6825,19007737,171,-1352,-1557,1027,-410,-459
6826,19007747,275,-1199,-1543,1064,-356,-622
6827,19007757,354,-1205,-1498,1084,-401,-560
6828,19007767,335,-1185,-1507,1060,-405,-505
6829,19007777,295,-1137,-1563,973,-428,-424
6830,19007787,366,-1110,-1634,938,-414,-352
6831,19007797,326,-1136,-1652,942,-403,-233
6832,19007807,296,-1177,-1660,947,-360,-159
6833,19007817,269,-1182,-1660,940,-296,-117
6834,19007827,299,-1208,-1634,1013,-234,-139
6835,19007837,290,-1215,-1580,1046,-196,-168
6836,19007847,310,-1240,-1556,1022,-176,-157
6837,19007857,336,-1212,-1517,981,-150,-256
6838,19007854,336,-1213,-1517,982,-151,-143
6839,19007864,326,-1230,-1499,970,-158,-130
6840,19007874,288,-1233,-1530,949,-179,-137
6841,19007884,255,-1251,-1565,941,-200,-128
6842,19007894,232,-1277,-1573,949,-238,-104
6843,19007904,181,-1284,-1595,917,-283,-105
6844,19007914,173,-1273,-1600,953,-311,-107
6845,19007924,256,-1236,-1576,1006,-277,-162
6846,19007934,294,-1200,-1558,1025,-268,-190
6847,19007944,298,-1204,-1542,1046,-267,-186
6848,19007954,337,-1188,-1540,1005,-277,-184
6849,19007964,366,-1195,-1568,976,-271,-201
6850,19007974,313,-1183,-1600,957,-282,-220
6851,19007984,287,-1187,-1637,992,-300,-204
6852,19007994,289,-1214,-1627,1040,-321,-184
6853,19008004,267,-1217,-1628,1094,-332,-182
6854,19008014,244,-1228,-1599,1173,-312,-191
6855,19008024,273,-1224,-1591,1214,-267,-201
6856,19008034,296,-1250,-1561,1242,-222,-189
6857,19008044,275,-1254,-1542,1200,-198,-158
6858,19008054,300,-1249,-1538,1134,-191,-170
6859,19008064,306,-1217,-1535,1121,-171,-226
6860,19008074,330,-1197,-1538,1153,-183,-245
6861,19008084,302,-1225,-1550,1184,-214,-232
6862,19008094,303,-1228,-1561,1185,-251,-203
6863,19008104,334,-1232,-1567,1148,-271,-256
6864,19008101,334,-1232,-1567,1148,-272,-185
6865,19008111,276,-1252,-1597,1116,-284,-146
6866,19008121,264,-1234,-1623,1069,-321,-114
6867,19008131,303,-1230,-1606,1069,-310,-98
6868,19008141,287,-1225,-1582,1048,-295,-80
6869,19008151,272,-1233,-1581,1007,-301,-72
6870,19008161,268,-1215,-1586,977,-316,-62
6871,19008171,296,-1223,-1583,971,-316,-54
6872,19008181,286,-1228,-1596,970,-317,-43
6873,19008191,271,-1227,-1597,986,-295,-47
6874,19008201,278,-1216,-1601,1015,-276,-49
6875,19008211,250,-1226,-1654,1009,-235,-50
6876,19008221,172,-1273,-1681,987,-140,-70
6877,19008231,202,-1301,-1706,973,6,-120
6878,19008241,166,-1410,-1695,964,136,-208
6879,19008251,159,-1441,-1701,907,256,-295
6880,19008261,154,-1423,-1747,579,316,-332
6881,19008271,175,-1416,-1772,252,380,-335
6882,19008281,287,-1108,-1755,-43,384,-438
6883,19008291,358,-882,-1780,-103,621,-596
6884,19008301,414,-848,-1680,264,673,-353
6885,19008311,457,-801,-1624,743,592,-18
6886,19008321,471,-893,-1583,1141,400,302
6887,19008331,449,-1057,-1519,1465,273,629
6888,19008341,494,-1150,-1423,1584,204,730
6889,19008351,479,-1198,-1403,1516,104,512
6890,19008347,480,-1198,-1403,1516,104,670
6891,19008357,481,-1196,-1361,1477,-3,575
6892,19008367,498,-1284,-1334,1520,-84,503
6893,19008377,503,-1324,-1324,1491,-149,442
6894,19008387,520,-1302,-1298,1453,-150,310
6895,19008397,556,-1258,-1271,1461,-129,137
6896,19008407,596,-1191,-1274,1432,-216,101
6897,19008417,586,-1128,-1356,1409,-365,180
6898,19008427,475,-1131,-1389,1535,-570,439
6899,19008437,442,-1233,-1480,1760,-798,661
6900,19008447,263,-1478,-1632,1719,-962,824
6901,19008457,217,-1268,-1671,1516,-927,835
6902,19008467,187,-1344,-1763,470,-782,401
6903,19008477,290,-1332,-1602,1310,-470,72
6904,19008487,310,-1291,-1531,1189,-359,92
6905,19008497,316,-1303,-1468,1187,-295,-27
6906,19008507,365,-1321,-1383,1198,-235,-88
6907,19008517,408,-1347,-1363,1107,-220,-145
6908,19008527,292,-1372,-1405,981,-284,-179
6909,19008537,247,-1330,-1518,800,-332,-257
6910,19008547,201,-1223,-1617,689,-332,-271
6911,19008557,216,-1282,-1644,828,-304,-190
6912,19008567,223,-1238,-1607,985,-261,-140
6913,19008577,267,-1226,-1558,1085,-228,-124
6914,19008587,327,-1233,-1532,1119,-273,-68
6915,19008597,256,-1278,-1552,1083,-362,0
6916,19008594,257,-1279,-1552,1084,-363,54
6917,19008604,265,-1289,-1539,1041,-384,67
6918,19008614,285,-1269,-1557,1045,-343,-10
6919,19008624,293,-1300,-1515,1067,-304,-42
6920,19008634,263,-1311,-1523,1037,-301,-44
6921,19008644,266,-1292,-1526,1006,-302,-54
6922,19008654,298,-1275,-1554,1022,-266,-66
6923,19008664,306,-1277,-1495,1068,-233,-36
6924,19008674,285,-1297,-1517,1084,-265,20
6925,19008684,280,-1323,-1529,1088,-367,92
6926,19008694,272,-1315,-1576,1059,-385,93
6927,19008704,259,-1281,-1583,1044,-271,-10
6928,19008714,298,-1291,-1556,1124,-161,-60
6929,19008724,336,-1283,-1520,1087,-120,-65
6930,19008734,319,-1295,-1515,1050,-121,-49
6931,19008744,318,-1334,-1494,996,-154,-42
6932,19008754,303,-1307,-1518,944,-190,-18
6933,19008764,289,-1330,-1551,936,-222,-8
6934,19008774,211,-1177,-1608,971,-282,10
6935,19008784,304,-1356,-1527,962,-351,80
6936,19008794,264,-1356,-1476,1116,-288,-15
6937,19008804,207,-1389,-1471,1138,-355,10
6938,19008814,182,-1357,-1493,1084,-341,-57
6939,19008824,264,-1326,-1423,1166,-228,-163
6940,19008834,295,-1336,-1464,1128,-259,-230
6941,19008844,273,-1247,-1554,1046,-360,-256
6942,19008841,273,-1247,-1554,1047,-361,-241
6943,19008851,225,-1175,-1597,1138,-429,-326
6944,19008861,416,-1167,-1530,1486,-560,-449
6945,19008871,391,-1171,-1445,1470,-500,-555
6946,19008881,297,-1271,-1391,1546,-501,-470
6947,19008891,304,-1315,-1392,1491,-579,-488
6948,19008901,261,-1370,-1364,1493,-583,-567
6949,19008911,245,-1420,-1363,1525,-625,-606
6950,19008921,226,-1451,-1393,1449,-667,-649
6951,19008931,211,-1451,-1468,1316,-695,-572
6952,19008941,205,-1409,-1541,1224,-673,-558
6953,19008951,224,-1374,-1499,1270,-611,-554
6954,19008961,295,-1320,-1503,1317,-568,-544
6955,19008971,335,-1296,-1478,1315,-585,-507
6956,19008981,296,-1311,-1495,1300,-589,-473
6957,19008991,310,-1266,-1506,1245,-585,-466
6958,19009001,313,-1265,-1519,1209,-581,-439
6959,19009011,237,-1298,-1556,1239,-593,-443
6960,19009021,264,-1314,-1524,1318,-575,-501
6961,19009031,265,-1333,-1455,1413,-508,-534
6962,19009041,300,-1396,-1378,1436,-437,-577
6963,19009051,292,-1389,-1327,1401,-373,-662
6964,19009061,313,-1507,-1318,1401,-348,-668
6965,19009071,300,-1428,-1409,1205,-480,-538
6966,19009081,302,-1430,-1459,1212,-563,-509
6967,19009091,290,-1396,-1529,1309,-592,-512
6968,19009087,290,-1397,-1529,1309,-593,-475
6969,19009097,293,-1302,-1544,1309,-603,-413
6970,19009107,295,-1338,-1514,1406,-512,-411
6971,19009117,345,-1312,-1517,1431,-484,-398
6972,19009127,338,-1326,-1504,1348,-481,-386
6973,19009137,321,-1352,-1470,1324,-446,-350
6974,19009147,269,-1417,-1470,1281,-421,-349
6975,19009157,227,-1442,-1446,1237,-429,-318
6976,19009167,268,-1467,-1351,1271,-409,-329
6977,19009177,280,-1472,-1287,1295,-369,-361
6978,19009187,264,-1447,-1292,1269,-374,-393
6979,19009197,326,-1416,-1286,1263,-350,-443
6980,19009207,336,-1426,-1334,1293,-355,-458
6981,19009217,360,-1394,-1391,1272,-388,-467
6982,19009227,316,-1421,-1507,1249,-421,-367
6983,19009237,340,-1404,-1541,1259,-449,-279
6984,19009247,349,-1364,-1509,1304,-423,-234
6985,19009257,337,-1397,-1479,1321,-411,-236
6986,19009267,315,-1429,-1396,1305,-387,-204
6987,19009277,349,-1453,-1339,1246,-360,-224
6988,19009287,324,-1461,-1302,1188,-340,-265
6989,19009297,316,-1456,-1292,1134,-353,-290
6990,19009307,338,-1447,-1333,1120,-391,-288
6991,19009317,321,-1466,-1307,1131,-404,-293
6992,19009327,265,-1464,-1356,1117,-386,-300
6993,19009337,341,-1448,-1385,1139,-415,-256
6994,19009334,342,-1449,-1385,1139,-415,-244
6995,19009344,329,-1444,-1425,1095,-431,-218
6996,19009354,350,-1441,-1413,1123,-392,-233
6997,19009364,369,-1423,-1340,1112,-390,-214
6998,19009374,332,-1459,-1358,1059,-405,-193
6999,19009384,393,-1429,-1358,1034,-465,-188
7000,19009394,332,-1461,-1352,992,-454,-175
7001,19009404,358,-1444,-1375,958,-417,-228
7002,19009414,352,-1451,-1446,959,-409,-217
7003,19009424,320,-1448,-1462,977,-416,-184
7004,19009434,283,-1426,-1423,1053,-364,-168
7005,19009444,346,-1469,-1392,1178,-336,-168
7006,19009454,323,-1461,-1376,1162,-292,-207
7007,19009464,325,-1444,-1360,1154,-252,-201
7008,19009474,322,-1461,-1359,1066,-240,-184
7009,19009484,335,-1461,-1358,1020,-232,-191
7010,19009494,331,-1446,-1315,1017,-253,-232
7011,19009504,333,-1412,-1376,988,-309,-252
7012,19009514,363,-1423,-1386,1006,-305,-246
7013,19009524,341,-1404,-1402,1050,-286,-269
7014,19009534,323,-1431,-1402,1070,-298,-264
7015,19009544,349,-1445,-1362,1060,-301,-224
7016,19009554,361,-1443,-1384,1022,-312,-201
7017,19009564,347,-1458,-1368,1002,-320,-177
7018,19009574,325,-1459,-1377,1005,-327,-163
7019,19009584,389,-1443,-1361,1048,-308,-256
7020,19009581,389,-1444,-1361,1049,-309,-185
7021,19009591,402,-1457,-1293,1114,-302,-216
7022,19009601,366,-1427,-1368,1038,-371,-212
7023,19009611,370,-1447,-1406,1011,-393,-170
7024,19009621,372,-1439,-1433,998,-394,-134
7025,19009631,340,-1461,-1456,1005,-387,-108
7026,19009641,301,-1464,-1435,992,-362,-82
7027,19009651,325,-1435,-1381,965,-314,-84
7028,19009661,326,-1439,-1365,912,-263,-88
7029,19009671,287,-1426,-1357,851,-249,-63
7030,19009681,314,-1434,-1373,795,-217,-42
7031,19009691,358,-1420,-1386,697,-193,-37
7032,19009701,337,-1440,-1468,623,-180,-17
7033,19009711,310,-1442,-1554,653,-163,21
7034,19009721,366,-1438,-1678,803,-112,12
7035,19009731,429,-1459,-1671,1069,18,-65
7036,19009741,453,-1469,-1705,1385,147,-94
7037,19009751,451,-1489,-1796,1552,225,-139
7038,19009761,415,-1694,-1804,1795,403,-214
7039,19009771,509,-1579,-1838,1988,683,-447
7040,19009781,491,-1560,-1739,1840,931,-631
7041,19009791,693,-1328,-1761,1610,1126,-706
7042,19009801,930,-1161,-1942,1294,1280,-628
7043,19009811,1002,-882,-1879,1497,1359,-569
7044,19009821,1021,-972,-1814,846,1651,-611
7045,19009831,1063,-1298,-1479,1942,1924,-512
7046,19009827,1064,-1299,-1479,1942,1923,-349
7047,19009837,1134,-1068,-1394,1898,2007,92
7048,19009847,959,-1269,-1286,2294,1736,355
7049,19009857,986,-1291,-1062,2775,1685,579
7050,19009867,895,-1348,-822,2877,1615,543
7051,19009877,843,-1401,-571,2790,1655,436
7052,19009887,883,-1343,-311,2382,1604,305
7053,19009897,875,-1302,-237,1864,1369,257
7054,19009907,838,-1276,-257,1374,1011,322
7055,19009917,749,-1351,-345,1072,578,530
7056,19009927,668,-1493,-399,818,185,759
7057,19009937,546,-1672,-515,691,-179,901
7058,19009947,404,-1769,-608,727,-593,936
7059,19009957,334,-1769,-751,842,-898,693
7060,19009967,328,-1727,-851,1108,-1021,484
7061,19009977,326,-1772,-912,1310,-1001,293
7062,19009987,319,-1712,-931,1319,-905,214
7063,19009997,382,-1673,-928,1318,-824,173
7064,19010007,368,-1709,-903,1322,-782,138
7065,19010017,332,-1707,-907,1264,-803,183
7066,19010027,306,-1715,-861,1290,-908,200
7067,19010037,273,-1753,-856,1238,-966,149
7068,19010047,206,-1846,-908,1246,-957,130
7069,19010057,193,-1875,-888,1257,-955,9
7070,19010067,252,-1845,-857,1265,-900,-164
7071,19010077,266,-1772,-904,1252,-938,-512
7072,19010074,266,-1772,-904,1252,-939,-271
7073,19010084,269,-1659,-919,1242,-991,-358
7074,19010094,319,-1516,-928,1210,-997,-390
7075,19010104,309,-1424,-919,1130,-983,-265
7076,19010114,301,-1338,-906,1032,-916,-92
7077,19010124,292,-1275,-904,956,-863,133
7078,19010134,302,-1242,-982,976,-876,440
7079,19010144,295,-1142,-1025,911,-797,705
7080,19010154,285,-1137,-1042,1039,-595,932
7081,19010164,252,-1138,-1088,1029,-418,1277
7082,19010174,518,-5334,-1815,965,-302,1639
7083,19010184,-677,-3607,-2287,-670,-405,1983
7084,19010194,-397,-1922,-2116,-901,-890,408
7085,19010204,619,-1461,-1227,831,-14,-1193
7086,19010214,426,-1728,-1019,1392,85,-70
7087,19010224,132,-1916,-1369,1076,-495,783
7088,19010234,325,-1665,-1146,1235,-344,360
7089,19010244,388,-1553,-849,1605,-53,142
7090,19010254,255,-1671,-927,1535,-139,316
7091,19010264,128,-1793,-1061,1346,-239,339
7092,19010274,93,-1881,-1037,1143,-126,145
7093,19010284,-25,-2498,-1583,978,0,-26
7094,19010294,163,-2115,-1126,305,24,-237
7095,19010304,-113,-2085,-1163,1079,275,-461
7096,19010314,-124,-2418,-1415,751,195,-130
7097,19010324,-251,-2318,-1254,547,129,-512
7098,19010321,-251,-2318,-1254,547,128,-302
7099,19010331,-196,-2170,-1117,1164,345,-857
7100,19010341,-77,-1999,-1037,1097,250,-1255
7101,19010351,-23,-1874,-1060,1086,112,-1391
7102,19010361,-26,-1785,-1013,1213,2,-1381
7103,19010371,64,-1729,-990,1397,-19,-1393
7104,19010381,156,-1597,-955,1472,-43,-1352
7105,19010391,188,-1524,-874,1557,-106,-1224
7106,19010401,249,-1410,-808,1542,-96,-1203
7107,19010411,342,-1261,-760,1446,-120,-1189
7108,19010421,441,-1133,-688,1355,-188,-1119
7109,19010431,511,-1103,-670,1305,-322,-1006
7110,19010441,543,-1102,-756,1205,-519,-792
7111,19010451,617,-1099,-865,1140,-742,-606
7112,19010461,643,-1071,-917,1191,-872,-415
7113,19010471,679,-1064,-990,1248,-894,-199
7114,19010481,706,-1069,-1060,1354,-926,73
7115,19010491,664,-1137,-1079,1309,-978,436
7116,19010501,627,-1232,-1138,1278,-1002,791
7117,19010511,493,-1319,-1323,1129,-1068,1138
7118,19010521,473,-1525,-1410,1132,-1114,1491
7119,19010531,349,-1552,-1432,1065,-1049,1855
7120,19010541,316,-1808,-1484,841,-835,1943
7121,19010551,521,-4755,-1781,753,-560,1702
7122,19010561,-18,-1632,-1635,-292,-114,583
7123,19010571,507,-1905,-1645,50,-208,-768
7124,19010567,507,-1906,-1645,51,-209,-576
7125,19010577,374,-1681,-1417,437,50,-135
7126,19010587,379,-1774,-1343,218,-19,155
7127,19010597,250,-1878,-1348,174,-21,441
7128,19010607,210,-1947,-1313,113,-65,639
7129,19010617,194,-1929,-1274,83,-91,837
7130,19010627,239,-1868,-1255,116,-163,940
7131,19010637,343,-1819,-1140,218,-201,925
7132,19010647,349,-1932,-1092,257,-183,943
7133,19010657,390,-1881,-1055,166,-198,933
7134,19010667,465,-1723,-1033,17,-214,614
7135,19010677,463,-1733,-992,-78,-167,409
7136,19010687,499,-1708,-994,-197,-138,276
7137,19010697,536,-1591,-1041,-390,-151,-31
7138,19010707,546,-1509,-1060,-451,-77,-347
7139,19010717,654,-1446,-1063,-299,40,-622
7140,19010727,745,-1364,-1093,-220,145,-872
7141,19010737,783,-1271,-1153,-156,303,-1064
7142,19010747,908,-1266,-1115,31,476,-1275
7143,19010757,1076,-1152,-1002,152,652,-1465
7144,19010767,1181,-947,-964,7,797,-1678
7145,19010777,1224,-792,-956,-62,858,-1843
7146,19010787,1120,-758,-901,0,992,-1724
7147,19010797,808,-828,-1002,11,1097,-1244
7148,19010807,364,-1191,-1366,405,1096,-595
7149,19010817,91,-1280,-1472,1147,603,0
7150,19010814,92,-1281,-1472,1147,603,213
7151,19010824,106,-1421,-1280,1980,-520,1184
7152,19010834,-26,-2093,-1436,2539,-1771,2189
7153,19010844,-384,-1978,-1602,1998,-2379,2424
7154,19010854,-771,-1800,-1768,1354,-2282,1776
7155,19010864,-51,-1346,-2093,-822,-1703,86
7156,19010874,550,-1610,-1535,1504,-614,-837
7157,19010884,451,-1488,-1406,1366,-371,-155
7158,19010894,370,-1511,-1475,946,-683,-31
7159,19010904,266,-1311,-1518,1033,-683,-452
7160,19010914,213,-1570,-1402,1308,-795,-232
7161,19010924,26,-1551,-1464,1113,-954,-237
7162,19010934,125,-1508,-1559,1077,-1052,-367
7163,19010944,235,-1345,-1562,915,-939,-543
7164,19010954,274,-1309,-1457,1066,-678,-583
7165,19010964,462,-1259,-1290,1172,-508,-639
7166,19010974,465,-1224,-1308,1010,-512,-612
7167,19010984,395,-1192,-1406,834,-631,-548
7168,19010994,379,-1244,-1455,871,-584,-458
7169,19011004,320,-1319,-1486,920,-418,-453
7170,19011014,266,-1341,-1463,998,-244,-440
7171,19011024,287,-1356,-1452,1024,-124,-514
7172,19011034,197,-1502,-1441,1010,-55,-474
7173,19011044,210,-1517,-1444,982,-59,-490
7174,19011054,229,-1533,-1463,914,0,-637
7175,19011064,277,-1513,-1510,816,59,-768
7176,19011061,278,-1514,-1510,816,59,-658
7177,19011071,395,-1502,-1526,780,135,-710
7178,19011081,584,-1343,-1445,674,313,-853
7179,19011091,834,-1315,-1255,676,477,-990
7180,19011101,1002,-1012,-1159,535,629,-1129
7181,19011111,1024,-851,-1190,164,609,-946
7182,19011121,852,-843,-1212,466,728,-777
7183,19011131,670,-1011,-1243,845,795,-390
7184,19011141,567,-1119,-1282,1118,741,-120
7185,19011151,433,-1130,-1353,1221,611,190
7186,19011161,360,-1374,-1257,1598,180,744
7187,19011171,269,-1531,-1329,1718,-494,1360
7188,19011181,198,-1748,-1451,1611,-1197,1634
7189,19011191,155,-1644,-1508,1493,-1596,1643
7190,19011201,112,-3092,-1984,1519,-1585,1286
7191,19011211,-72,-1100,-1889,-285,-1137,557
7192,19011221,376,-1510,-1703,1240,-781,-180
7193,19011231,284,-1230,-1582,1177,-543,-102
7194,19011241,416,-1233,-1531,1290,-577,-238
7195,19011251,394,-1215,-1433,1304,-569,-264
7196,19011261,402,-1394,-1325,1414,-517,-340
7197,19011271,346,-1414,-1339,1219,-547,-402
7198,19011281,293,-1465,-1385,1079,-551,-404
7199,19011291,248,-1479,-1409,1003,-505,-406
7200,19011301,156,-1509,-1420,1009,-437,-355
7201,19011311,271,-1453,-1428,1024,-452,-512
7202,19011307,272,-1454,-1428,1025,-453,-361
7203,19011317,358,-1445,-1461,1004,-431,-420
7204,19011327,158,-1315,-1451,953,-411,-352
7205,19011337,494,-1279,-1406,1065,-456,-426
7206,19011347,483,-1246,-1359,907,-426,-408
7207,19011357,447,-1243,-1438,916,-410,-302
7208,19011367,368,-1274,-1532,804,-430,-215
7209,19011377,296,-1318,-1555,845,-377,-151
7210,19011387,228,-1350,-1557,910,-303,-157
7211,19011397,263,-1364,-1529,1004,-280,-185
7212,19011407,298,-1394,-1450,1096,-261,-182
7213,19011417,340,-1394,-1388,1135,-238,-215
7214,19011427,318,-1405,-1360,1098,-271,-216
7215,19011437,320,-1394,-1364,1069,-301,-223
7216,19011447,370,-1399,-1372,1066,-328,-223
7217,19011457,307,-1367,-1456,986,-353,-254
7218,19011467,264,-1388,-1485,994,-365,-220
7219,19011477,301,-1370,-1463,1030,-331,-294
7220,19011487,282,-1383,-1489,1089,-325,-287
7221,19011497,307,-1382,-1472,1086,-342,-324
7222,19011507,338,-1386,-1442,1126,-338,-333
7223,19011517,377,-1309,-1421,1115,-311,-363
7224,19011527,462,-1282,-1403,1101,-299,-319
7225,19011537,457,-1254,-1406,1073,-291,-234
7226,19011547,444,-1273,-1464,1005,-306,-125
7227,19011557,404,-1247,-1526,973,-279,-256
7228,19011554,405,-1248,-1526,974,-279,-68
7229,19011564,349,-1329,-1491,1005,-244,-1
7230,19011574,299,-1337,-1520,996,-316,107
7231,19011584,285,-1369,-1507,992,-387,168
7232,19011594,295,-1420,-1468,1103,-441,181
7233,19011604,369,-1398,-1413,1071,-485,95
7234,19011614,350,-1351,-1437,1045,-407,49
7235,19011624,394,-1343,-1452,1002,-439,82
7236,19011634,357,-1353,-1479,892,-430,110
7237,19011644,387,-1403,-1474,885,-449,183
7238,19011654,331,-1379,-1563,815,-478,209
7239,19011664,350,-1360,-1602,877,-429,189
7240,19011674,407,-1843,-1635,1015,-341,188
7241,19011684,289,-1370,-1652,1117,-271,223
7242,19011694,191,-1343,-1790,1373,-161,178
7243,19011704,248,-1335,-1846,1734,4,202
7244,19011714,298,-1360,-1906,2056,285,124
7245,19011724,394,-1386,-1863,2274,593,65
7246,19011734,507,-1457,-1808,2553,864,-145
7247,19011744,590,-1427,-1688,2554,1134,-398
7248,19011754,680,-1524,-1556,2602,1426,-563
7249,19011764,785,-1634,-1479,2624,1605,-542
7250,19011774,844,-1460,-1446,2122,1735,-763
7251,19011784,1044,-1535,-1262,2214,1861,-837
7252,19011794,1219,-1147,-1225,1900,2265,-1293
7253,19011804,1323,-1181,-1007,2301,2535,-1281
7254,19011801,1324,-1181,-1007,2302,2535,-1149
7255,19011811,1228,-1133,-926,2492,2913,-1018
7256,19011821,1110,-987,-795,2445,3025,-851
7257,19011831,1047,-1089,-627,2824,2886,-637
7258,19011841,963,-1199,-474,2774,2612,-627
7259,19011851,909,-1128,-401,2270,2279,-582
7260,19011861,912,-1176,-348,1748,1837,-353
7261,19011871,873,-1266,-349,1249,1332,4
7262,19011881,791,-1385,-495,867,728,470
7263,19011891,643,-1619,-634,873,40,847
7264,19011901,630,-1768,-858,1015,-374,864
7265,19011911,588,-1808,-968,1038,-594,705
7266,19011921,508,-1821,-918,1067,-660,583
7267,19011931,480,-1837,-848,1037,-607,457
7268,19011941,495,-1746,-712,859,-488,320
7269,19011951,482,-1724,-674,677,-431,186
7270,19011961,479,-1681,-741,584,-557,235
7271,19011971,482,-1677,-856,712,-734,347
7272,19011981,452,-1853,-977,722,-827,404
7273,19011991,400,-1919,-1096,737,-866,612
7274,19012001,398,-2026,-1121,1024,-889,650
7275,19012011,400,-1962,-1090,1252,-910,371
7276,19012021,412,-1830,-1051,1273,-887,-21
7277,19012031,445,-1648,-1003,1153,-825,-290
7278,19012041,446,-1517,-851,1046,-742,-427
7279,19012051,414,-1370,-752,892,-698,-768
7280,19012047,415,-1371,-752,893,-699,-530
7281,19012057,429,-1221,-803,546,-754,-521
7282,19012067,483,-788,-912,364,-866,-171
7283,19012077,398,-618,-953,762,-1028,759
7284,19012087,203,-929,-879,1324,-927,2097
7285,19012097,134,-1578,-852,1948,-570,2778
7286,19012107,17,-3856,-927,1944,-398,2499
7287,19012117,-918,-2954,-2428,-1064,-1282,2118
7288,19012127,273,-1569,-2186,-259,-1184,-1055
7289,19012137,637,-1282,-1410,1015,-85,-1094
7290,19012147,458,-1722,-1382,1532,-134,421
7291,19012157,326,-1676,-1821,1389,-688,654
7292,19012167,468,-1602,-1935,1505,-766,289
7293,19012177,144,-365,-1679,1820,-564,534
7294,19012187,588,-1471,-1384,2706,-320,-121
7295,19012197,247,-2852,-1705,2662,-246,703
7296,19012207,405,-1318,-1725,1702,-401,857
7297,19012217,312,-1580,-1553,1253,3,267
7298,19012227,244,-1423,-1458,789,700,340
7299,19012237,366,-1302,-1491,269,819,-177
7300,19012247,372,-1226,-1546,-52,956,-145
7301,19012257,378,-1220,-1514,-14,1230,-138
7302,19012267,391,-1175,-1439,56,1407,-171
7303,19012277,414,-1131,-1308,127,1510,-118
7304,19012287,439,-1088,-1186,134,1591,-7
7305,19012297,420,-1066,-1110,76,1621,0
7306,19012294,421,-1066,-1109,77,1620,171
7307,19012304,408,-1090,-1082,-109,1609,426
7308,19012314,398,-1345,-1076,-309,1630,706
7309,19012324,343,-1630,-1112,-513,1672,1036
7310,19012334,294,-1826,-1129,-682,1639,1203
7311,19012344,281,-1919,-1095,-665,1635,1096
7312,19012354,308,-1873,-1037,-587,1646,835
7313,19012364,269,-1864,-939,-438,1597,638
7314,19012374,256,-1804,-840,-153,1504,655
7315,19012384,308,-1754,-759,101,1334,640
7316,19012394,283,-1794,-739,303,1131,683
7317,19012404,318,-1868,-723,525,937,802
7318,19012414,323,-1966,-763,641,652,1051
7319,19012424,298,-2043,-795,715,387,1277
7320,19012434,261,-2055,-840,790,176,1332
7321,19012444,257,-2059,-856,858,3,1242
7322,19012454,294,-2009,-845,964,-60,1088
7323,19012464,286,-1989,-829,1036,-71,968
7324,19012474,290,-2054,-734,1016,-121,903
7325,19012484,372,-2210,-728,1274,-207,1000
7326,19012494,219,-2067,-755,1393,-398,1156
7327,19012504,294,-1931,-797,1618,-543,719
7328,19012514,370,-1825,-853,1432,-544,377
7329,19012524,366,-2081,-841,1512,-356,511
7330,19012534,300,-1858,-855,1160,-301,489
7331,19012544,335,-1825,-982,969,-473,-256
7332,19012541,336,-1825,-982,970,-474,-41
7333,19012551,377,-1753,-990,983,-338,-14
7334,19012561,410,-1689,-971,920,-261,-89
7335,19012571,392,-1663,-969,823,-229,-58
7336,19012581,408,-1650,-984,772,-229,-50
7337,19012591,433,-1602,-1014,707,-247,-85
7338,19012601,440,-1546,-1064,752,-266,-113
7339,19012611,433,-1489,-1109,779,-275,-102
7340,19012621,475,-1519,-1117,789,-268,-86
7341,19012631,437,-1562,-1100,801,-249,-68
7342,19012641,365,-1647,-1130,736,-241,2
7343,19012651,416,-1685,-1136,640,-257,71
7344,19012661,344,-1686,-1184,521,-253,41
7345,19012671,349,-1681,-1190,596,-115,-105
7346,19012681,307,-1655,-1189,597,-20,-224
7347,19012691,338,-1634,-1177,630,106,-338
7348,19012701,368,-1636,-1134,680,247,-475
7349,19012711,370,-1619,-1110,585,300,-583
7350,19012721,389,-1585,-1139,468,223,-624
7351,19012731,422,-1543,-1184,385,132,-643
7352,19012741,419,-1572,-1228,352,95,-627
7353,19012751,393,-1562,-1293,350,74,-567
7354,19012761,407,-1519,-1382,383,83,-635
7355,19012771,417,-1453,-1472,482,176,-769
7356,19012781,635,-2272,-1703,814,387,-1094
7357,19012791,406,-1204,-1644,188,880,-1537
7358,19012788,407,-1204,-1644,189,880,-1477
7359,19012798,348,-1537,-1312,-48,744,-1221
7360,19012808,768,-1438,-1466,665,1094,-1193
7361,19012818,679,-1263,-1555,-95,517,-1351
7362,19012828,748,-1150,-1579,52,420,-857
7363,19012838,641,-1036,-1216,642,461,-243
7364,19012848,655,-665,-665,1744,586,315
7365,19012858,762,-341,-136,3130,194,792
7366,19012868,978,-568,-181,3676,-716,1582
7367,19012878,1061,-3765,-1092,3452,-1642,3289
7368,19012888,-548,-1960,-1018,1796,-2058,4318
7369,19012898,-363,-2381,-1957,-341,-1958,1644
7370,19012908,193,-1609,-1708,225,-1186,321
7371,19012918,521,-1664,-1242,1358,-692,12
7372,19012928,393,-1644,-1235,1151,-780,473
7373,19012938,335,-1594,-1466,886,-1076,567
7374,19012948,316,-1479,-1604,870,-964,252
7375,19012958,326,-1462,-1474,1155,-562,80
7376,19012968,367,-1474,-1290,1479,-214,-52
7377,19012978,384,-1549,-1190,1614,-83,-216
7378,19012988,345,-1598,-1165,1496,-95,-315
7379,19012998,533,-2376,-1292,1229,-121,-361
7380,19013008,155,-1063,-1099,658,-221,-211
7381,19013018,488,-1491,-1047,1169,154,-1289
7382,19013028,344,-1592,-1007,1181,237,-683
7383,19013038,343,-1559,-1034,736,-11,-768
7384,19013034,344,-1559,-1034,736,-11,-553
7385,19013044,326,-1528,-1073,627,-127,-568
7386,19013054,346,-1541,-1078,701,-175,-568
7387,19013064,341,-1570,-1117,722,-259,-408
7388,19013074,397,-1693,-1224,784,-369,-193
7389,19013084,373,-1640,-1314,759,-539,-23
7390,19013094,391,-1574,-1336,838,-614,-47
7391,19013104,447,-1503,-1353,934,-546,-104
7392,19013114,445,-1505,-1296,1021,-484,-60
7393,19013124,382,-1500,-1264,1046,-472,2
7394,19013134,401,-1492,-1260,1062,-463,35
7395,19013144,434,-1504,-1242,1063,-475,53
7396,19013154,411,-1512,-1260,1007,-482,71
7397,19013164,376,-1534,-1261,942,-522,143
7398,19013174,394,-1532,-1257,906,-540,181
7399,19013184,387,-1531,-1276,874,-526,192
7400,19013194,323,-1521,-1271,886,-508,205
7401,19013204,339,-1498,-1258,944,-485,221
7402,19013214,359,-1533,-1236,1032,-504,266
7403,19013224,301,-1564,-1256,1008,-557,298
7404,19013234,243,-1553,-1302,935,-577,312
7405,19013244,250,-1521,-1346,896,-550,289
7406,19013254,267,-1512,-1299,993,-442,228
7407,19013264,243,-1537,-1264,1081,-316,197
7408,19013274,271,-1544,-1257,1118,-290,214
7409,19013284,275,-1519,-1282,1118,-293,0
7410,19013281,275,-1520,-1282,1118,-294,231
7411,19013291,162,-1619,-1123,1175,-258,263
7412,19013301,204,-1725,-1091,1254,-92,233
7413,19013311,193,-1711,-1180,1067,-83,206
7414,19013321,234,-1605,-1253,832,-189,4
7415,19013331,240,-1539,-1268,867,-198,-103
7416,19013341,292,-1513,-1312,853,-142,-111
7417,19013351,305,-1490,-1344,850,-127,-67
7418,19013361,289,-1469,-1367,842,-167,-56
7419,19013371,290,-1427,-1433,843,-199,-64
7420,19013381,300,-1398,-1451,883,-221,-35
7421,19013391,289,-1373,-1508,946,-242,9
7422,19013401,252,-1379,-1539,1027,-245,31
7423,19013411,254,-1415,-1478,1139,-211,56
7424,19013421,255,-1460,-1408,1273,-166,127
7425,19013431,212,-1526,-1339,1382,-152,153
7426,19013441,217,-1558,-1265,1432,-157,105
7427,19013451,238,-1594,-1206,1432,-168,69
7428,19013461,232,-1610,-1168,1403,-169,44
7429,19013471,211,-1623,-1126,1325,-176,9
7430,19013481,216,-1620,-1113,1214,-203,-4
7431,19013491,233,-1643,-1115,1095,-245,-8
7432,19013501,212,-1636,-1119,959,-282,-26
7433,19013511,230,-1642,-1147,836,-302,-44
7434,19013521,280,-1597,-1198,718,-330,-61
7435,19013531,279,-1548,-1256,605,-383,-256
7436,19013527,280,-1549,-1256,606,-384,-81
7437,19013537,250,-1509,-1344,543,-448,-101
7438,19013547,254,-1466,-1400,516,-495,-106
7439,19013557,259,-1463,-1420,565,-507,-94
7440,19013567,204,-1441,-1451,648,-481,-75
7441,19013577,182,-1481,-1402,784,-369,-81
7442,19013587,208,-1496,-1341,934,-234,-85
7443,19013597,208,-1538,-1277,976,-197,-80
7444,19013607,194,-1559,-1236,943,-234,-77
7445,19013617,206,-1543,-1249,862,-288,-75
7446,19013627,221,-1538,-1276,790,-309,-74
7447,19013637,204,-1515,-1290,731,-319,-73
7448,19013647,211,-1485,-1338,698,-325,-96
7449,19013657,228,-1462,-1366,677,-333,-114
7450,19013667,229,-1448,-1382,682,-335,-92
7451,19013677,189,-1463,-1392,702,-332,-64
7452,19013687,188,-1461,-1391,724,-320,-61
7453,19013697,224,-1471,-1393,771,-273,-78
7454,19013707,194,-1474,-1372,797,-253,-78
7455,19013717,191,-1469,-1353,786,-267,-69
7456,19013727,198,-1476,-1371,765,-288,-61
7457,19013737,194,-1461,-1386,753,-271,-79
7458,19013747,173,-1464,-1369,765,-235,-95
7459,19013757,209,-1447,-1361,753,-229,-103
7460,19013767,237,-1446,-1375,709,-258,-102
7461,19013777,215,-1441,-1408,671,-304,-256
7462,19013774,216,-1442,-1408,672,-305,-93
7463,19013784,181,-1423,-1435,648,-333,-90
7464,19013794,226,-1403,-1467,664,-348,-91
7465,19013804,232,-1376,-1484,694,-363,-100
7466,19013814,200,-1368,-1490,729,-384,-102
7467,19013824,210,-1362,-1477,765,-393,-88
7468,19013834,213,-1364,-1432,796,-391,-67
7469,19013844,186,-1392,-1408,810,-358,-68
7470,19013854,167,-1409,-1409,795,-373,-69
7471,19013864,181,-1396,-1449,757,-417,-76
7472,19013874,170,-1398,-1475,738,-425,-88
7473,19013884,146,-1387,-1489,747,-402,-83
7474,19013894,161,-1395,-1497,772,-379,-82
7475,19013904,187,-1368,-1472,784,-359,-83
7476,19013914,157,-1374,-1475,801,-331,-83
7477,19013924,171,-1384,-1463,811,-323,-82
7478,19013934,191,-1358,-1480,798,-321,-83
7479,19013944,182,-1367,-1485,780,-344,-75
7480,19013954,152,-1365,-1500,776,-357,-70
7481,19013964,155,-1351,-1524,779,-361,-69
7482,19013974,184,-1344,-1549,798,-348,-74
7483,19013984,165,-1346,-1538,862,-300,-84
7484,19013994,137,-1337,-1513,906,-263,-81
7485,19014004,165,-1331,-1519,930,-260,-71
7486,19014014,159,-1325,-1487,935,-279,-69
7487,19014024,136,-1328,-1499,923,-286,-256
7488,19014021,136,-1329,-1499,924,-286,-70
7489,19014031,127,-1334,-1509,928,-291,-62
7490,19014041,160,-1337,-1496,932,-293,-59
7491,19014051,147,-1328,-1508,935,-295,-66
7492,19014061,144,-1312,-1506,924,-309,-68
7493,19014071,172,-1317,-1513,916,-318,-69
7494,19014081,155,-1320,-1513,910,-324,-69
7495,19014091,134,-1329,-1528,905,-318,-68
7496,19014101,149,-1298,-1519,909,-324,-70
7497,19014111,169,-1315,-1536,904,-338,-76
7498,19014121,126,-1300,-1556,889,-353,-72
7499,19014131,102,-1304,-1564,934,-307,-86
7500,19014141,147,-1314,-1535,999,-239,-94
7501,19014151,162,-1328,-1514,1036,-202,-87
7502,19014161,135,-1324,-1530,1036,-210,-87
7503,19014171,156,-1315,-1548,1023,-218,-95
7504,19014181,164,-1303,-1554,1037,-202,-92
7505,19014191,128,-1309,-1604,1095,-150,-93
7506,19014201,91,-1286,-1656,1198,-37,-115
7507,19014211,143,-1300,-1616,1424,205,-177
7508,19014221,174,-1307,-1551,1617,400,-194
7509,19014231,179,-1370,-1411,1714,497,-198
7510,19014241,239,-1330,-1281,1654,518,-173
7511,19014251,369,-1380,-1269,1525,393,-89
7512,19014261,347,-1240,-1353,1362,-47,242
7513,19014271,98,-199,-1100,1514,-723,512
7514,19014267,99,-200,-1100,1514,-723,563
7515,19014277,239,-1704,-1560,1771,-1089,579
7516,19014287,-96,-1211,-1853,-127,-1680,962
7517,19014297,49,-1287,-1795,478,-1126,85
7518,19014307,12,-1291,-1624,1023,-497,63
7519,19014317,29,-1340,-1514,1357,-133,26
7520,19014327,-11,-1393,-1528,1468,-35,-44
7521,19014337,-36,-1402,-1527,1532,98,-107
7522,19014347,35,-1435,-1506,1697,325,-210
7523,19014357,98,-1469,-1412,1863,563,-368
7524,19014367,111,-1476,-1354,1852,601,-427
7525,19014377,143,-1483,-1333,1692,492,-418
7526,19014387,191,-1466,-1261,1515,399,-438
7527,19014397,214,-1480,-1279,1288,292,-549
7528,19014407,207,-1402,-1302,1028,148,-548
7529,19014417,279,-1524,-1360,871,78,-565
7530,19014427,-11,-807,-1453,627,17,-464
7531,19014437,518,-1289,-1448,246,17,-864
7532,19014447,387,-1384,-1314,1266,203,-736
7533,19014457,328,-1355,-1401,846,-13,-272
7534,19014467,303,-1402,-1434,766,-187,-251
7535,19014477,278,-1378,-1451,807,-247,-159
7536,19014487,329,-1352,-1424,815,-264,-188
7537,19014497,307,-1357,-1424,854,-290,-144
7538,19014507,267,-1367,-1423,824,-337,-98
7539,19014517,276,-1372,-1442,810,-382,-256
7540,19014514,277,-1372,-1442,810,-382,-66
7541,19014524,280,-1365,-1462,780,-422,-34
7542,19014534,241,-1375,-1456,787,-418,-23
7543,19014544,230,-1374,-1459,791,-407,-22
7544,19014554,269,-1376,-1430,786,-394,-29
7545,19014564,264,-1351,-1440,761,-389,-49
7546,19014574,229,-1350,-1473,711,-427,-56
7547,19014584,242,-1340,-1501,677,-462,-46
7548,19014594,243,-1305,-1551,676,-467,-42
7549,19014604,212,-1315,-1558,742,-411,-52
7550,19014614,200,-1313,-1535,831,-330,-71
7551,19014624,265,-1325,-1516,889,-291,-82
7552,19014634,245,-1314,-1508,890,-299,-57
7553,19014644,223,-1333,-1506,884,-322,-41
7554,19014654,219,-1326,-1524,876,-334,-37
7555,19014664,230,-1321,-1518,891,-314,-48
7556,19014674,220,-1325,-1509,933,-281,-61
7557,19014684,218,-1313,-1502,935,-276,-75
7558,19014694,255,-1298,-1499,921,-306,-71
7559,19014704,236,-1297,-1541,901,-334,-63
7560,19014714,192,-1299,-1540,899,-350,-48
7561,19014724,211,-1301,-1546,918,-347,-42
7562,19014734,231,-1306,-1540,949,-324,-49
7563,19014744,214,-1321,-1528,973,-298,-62
7564,19014754,202,-1312,-1533,987,-280,-67
7565,19014764,222,-1297,-1571,998,-278,-256
7566,19014761,222,-1298,-1571,999,-279,-74
7567,19014771,196,-1290,-1581,1047,-217,-95
7568,19014781,206,-1291,-1565,1151,-114,-119
7569,19014791,225,-1302,-1533,1209,-62,-134
7570,19014801,252,-1295,-1518,1225,-66,-132
7571,19014811,211,-1283,-1507,1197,-128,-109
7572,19014821,212,-1317,-1501,1185,-164,-113
7573,19014831,226,-1330,-1490,1143,-180,-86
7574,19014841,239,-1334,-1474,1134,-191,-71
7575,19014851,217,-1347,-1468,1110,-206,-82
7576,19014861,239,-1334,-1486,1065,-227,-93
7577,19014871,238,-1316,-1500,1022,-261,-86
7578,19014881,229,-1306,-1515,1004,-272,-81
7579,19014891,204,-1295,-1493,1008,-273,-82
7580,19014901,256,-1308,-1506,1010,-275,-93
7581,19014911,232,-1319,-1535,975,-309,-56
7582,19014921,206,-1332,-1532,969,-315,-60
7583,19014931,214,-1321,-1516,978,-304,-67
7584,19014941,232,-1310,-1522,979,-289,-64
7585,19014951,198,-1318,-1513,977,-291,-61
7586,19014961,201,-1317,-1501,962,-298,-61
7587,19014971,226,-1304,-1535,949,-314,-63
7588,19014981,193,-1303,-1540,933,-323,-57
7589,19014991,169,-1293,-1558,965,-281,-65
7590,19015001,197,-1299,-1553,1028,-213,-88
7591,19015011,226,-1297,-1539,1065,-177,-256
7592,19015007,227,-1297,-1539,1065,-178,-98
7593,19015017,223,-1312,-1515,1079,-149,-106
7594,19015027,199,-1306,-1533,1071,-164,-101
7595,19015037,239,-1325,-1543,1070,-168,-114
7596,19015047,244,-1311,-1516,1085,-164,-122
7597,19015057,223,-1313,-1508,1077,-173,-122
7598,19015067,234,-1312,-1519,1058,-202,-110
7599,19015077,241,-1306,-1538,1032,-228,-96
7600,19015087,212,-1315,-1531,1028,-234,-86
7601,19015097,195,-1310,-1506,1036,-228,-90
7602,19015107,232,-1322,-1506,1032,-204,-97
7603,19015117,232,-1303,-1520,1010,-228,-92
7604,19015127,209,-1278,-1549,992,-253,-97
7605,19015137,227,-1295,-1545,993,-251,-84
7606,19015147,241,-1289,-1559,1003,-246,-75
7607,19015157,215,-1300,-1548,1030,-234,-76
7608,19015167,202,-1290,-1549,1049,-230,-84
7609,19015177,231,-1311,-1536,1069,-212,-85
7610,19015187,238,-1316,-1505,1079,-191,-93
7611,19015197,219,-1308,-1509,1049,-208,-97
7612,19015207,223,-1300,-1517,1034,-212,-94
7613,19015217,227,-1293,-1506,1021,-220,-94
7614,19015227,225,-1292,-1501,1021,-221,-103
7615,19015237,198,-1314,-1531,996,-238,-90
7616,19015247,228,-1302,-1532,982,-249,-84
7617,19015257,230,-1310,-1515,984,-247,-256
7618,19015254,231,-1310,-1515,985,-248,-84
7619,19015264,209,-1288,-1532,976,-245,-82
7620,19015274,231,-1299,-1558,976,-260,-85
7621,19015284,249,-1286,-1549,976,-249,-90
7622,19015294,222,-1298,-1548,996,-245,-90
7623,19015304,212,-1271,-1560,1005,-234,-97
7624,19015314,247,-1279,-1545,1034,-221,-102
7625,19015324,238,-1276,-1533,1035,-223,-93
7626,19015334,197,-1290,-1544,1030,-239,-80
7627,19015344,211,-1287,-1541,1028,-238,-68
7628,19015354,229,-1299,-1532,1035,-240,-77
7629,19015364,211,-1290,-1510,1046,-213,-95
7630,19015374,212,-1291,-1508,1049,-200,-98
7631,19015384,227,-1286,-1529,1012,-230,-86
7632,19015394,228,-1290,-1556,992,-265,-86
7633,19015404,221,-1268,-1560,1009,-242,-90
7634,19015414,226,-1270,-1542,1038,-220,-87
7635,19015424,236,-1273,-1542,1045,-227,-86
7636,19015434,221,-1289,-1539,1032,-241,-79
7637,19015444,203,-1281,-1540,1035,-244,-77
7638,19015454,232,-1291,-1551,1032,-244,-83
7639,19015464,243,-1291,-1546,1040,-242,-85
7640,19015474,208,-1279,-1557,1045,-232,-84
7641,19015484,211,-1288,-1551,1050,-219,-81
7642,19015494,242,-1286,-1529,1063,-213,-86
7643,19015504,230,-1292,-1531,1047,-220,-256
7644,19015501,230,-1293,-1531,1048,-221,-89
7645,19015511,214,-1283,-1541,1040,-229,-87
7646,19015521,236,-1284,-1559,1037,-241,-85
7647,19015531,248,-1273,-1532,1046,-225,-89
7648,19015541,211,-1285,-1527,1052,-205,-84
7649,19015551,225,-1299,-1534,1037,-223,-69
7650,19015561,226,-1279,-1543,1014,-255,-70
7651,19015571,215,-1277,-1544,1012,-252,-81
7652,19015581,204,-1290,-1528,1017,-242,-78
7653,19015591,241,-1293,-1530,1007,-252,-71
7654,19015601,228,-1291,-1561,997,-262,-78
7655,19015611,206,-1285,-1564,1009,-244,-84
7656,19015621,243,-1274,-1540,1041,-208,-93
7657,19015631,257,-1262,-1544,1034,-210,-100
7658,19015641,213,-1278,-1550,1027,-225,-72
7659,19015651,185,-1267,-1544,1025,-244,-62
7660,19015661,216,-1269,-1556,1033,-240,-80
7661,19015671,225,-1261,-1563,1041,-246,-95
7662,19015681,202,-1260,-1576,1041,-260,-87
7663,19015691,206,-1275,-1564,1070,-254,-97
7664,19015701,234,-1268,-1560,1083,-238,-95
7665,19015711,218,-1290,-1545,1097,-239,-85
7666,19015721,205,-1283,-1528,1097,-236,-91
7667,19015731,231,-1291,-1521,1086,-233,-91
7668,19015741,228,-1286,-1530,1063,-246,-92
7669,19015751,204,-1285,-1547,1045,-263,-256
7670,19015748,205,-1286,-1547,1045,-263,-93
7671,19015758,220,-1283,-1548,1035,-265,-94
7672,19015768,252,-1292,-1548,1042,-244,-88
7673,19015778,214,-1289,-1552,1042,-238,-88
7674,19015788,212,-1278,-1539,1038,-244,-93
7675,19015798,243,-1288,-1555,1029,-239,-80
7676,19015808,233,-1284,-1544,1028,-234,-67
7677,19015818,199,-1282,-1564,1024,-232,-71
7678,19015828,200,-1282,-1555,1033,-226,-76
7679,19015838,231,-1274,-1556,1050,-213,-76
7680,19015848,210,-1279,-1541,1064,-181,-76
7681,19015858,211,-1270,-1531,1077,-187,-78
7682,19015868,230,-1276,-1542,1062,-197,-74
7683,19015878,233,-1283,-1526,1062,-193,-67
7684,19015888,213,-1273,-1524,1047,-201,-68
7685,19015898,211,-1278,-1538,1042,-206,-68
7686,19015908,229,-1283,-1547,1036,-212,-67
7687,19015918,216,-1288,-1553,1037,-211,-70
7688,19015928,199,-1284,-1555,1033,-213,-72
7689,19015938,233,-1269,-1552,1042,-208,-72
7690,19015948,234,-1275,-1556,1052,-206,-77
7691,19015958,216,-1279,-1559,1058,-202,-80
7692,19015968,224,-1273,-1551,1074,-184,-77
7693,19015978,235,-1287,-1535,1077,-180,-76
7694,19015988,224,-1296,-1542,1070,-185,-75
7695,19015998,219,-1265,-1529,1058,-195,-256
7696,19015994,220,-1266,-1529,1059,-195,-79
7697,19016004,238,-1273,-1533,1048,-203,-77
7698,19016014,229,-1273,-1539,1037,-209,-71
7699,19016024,208,-1290,-1552,1032,-211,-69
7700,19016034,204,-1279,-1553,1033,-207,-72
7701,19016044,240,-1277,-1551,1040,-203,-75
7702,19016054,224,-1263,-1546,1038,-212,-79
7703,19016064,213,-1267,-1555,1035,-224,-75
7704,19016074,242,-1270,-1544,1040,-221,-70
7705,19016084,231,-1284,-1551,1045,-214,-64
7706,19016094,220,-1303,-1531,1057,-205,-71
7707,19016104,242,-1276,-1531,1047,-211,-75
7708,19016114,247,-1275,-1554,1044,-216,-82
7709,19016124,221,-1290,-1541,1034,-215,-73
7710,19016134,221,-1275,-1540,1046,-200,-76
7711,19016144,245,-1277,-1555,1020,-237,-78
7712,19016154,240,-1274,-1564,1019,-230,-63
7713,19016164,203,-1280,-1556,1033,-230,-66
7714,19016174,227,-1273,-1524,1043,-209,-64
7715,19016184,244,-1270,-1529,1036,-230,-63
7716,19016194,226,-1280,-1550,1015,-242,-60
7717,19016204,210,-1280,-1559,1001,-261,-55
7718,19016214,238,-1271,-1542,1023,-235,-61
7719,19016224,237,-1271,-1544,1019,-235,-62
7720,19016234,216,-1279,-1537,1033,-225,-56
7721,19016244,206,-1279,-1544,1020,-233,-256
7722,19016241,207,-1280,-1544,1020,-234,-60
7723,19016251,233,-1261,-1566,1026,-240,-60
7724,19016261,217,-1271,-1557,1045,-220,-72
7725,19016271,229,-1269,-1551,1073,-197,-78
7726,19016281,224,-1265,-1543,1059,-221,-76
7727,19016291,226,-1279,-1549,1051,-238,-62
7728,19016301,207,-1284,-1563,1055,-226,-62
7729,19016311,240,-1284,-1536,1068,-200,-73
7730,19016321,254,-1281,-1535,1061,-213,-83
7731,19016331,221,-1273,-1544,1036,-227,-83
7732,19016341,211,-1270,-1545,1028,-230,-69
7733,19016351,242,-1261,-1552,1025,-233,-68
7734,19016361,226,-1268,-1555,1024,-232,-66
7735,19016371,204,-1279,-1541,1039,-225,-67
7736,19016381,216,-1272,-1551,1037,-231,-69
7737,19016391,244,-1265,-1567,1035,-235,-63
7738,19016401,222,-1273,-1557,1041,-233,-64
7739,19016411,212,-1275,-1551,1056,-217,-70
7740,19016421,243,-1266,-1553,1066,-208,-73
7741,19016431,239,-1259,-1550,1061,-218,-69
7742,19016441,206,-1270,-1554,1059,-223,-64
7743,19016451,224,-1279,-1549,1070,-214,-68
7744,19016461,250,-1271,-1548,1076,-215,-76
7745,19016471,222,-1284,-1545,1061,-219,-72
7746,19016481,196,-1281,-1525,1061,-223,-57
7747,19016491,230,-1282,-1531,1043,-224,-256
7748,19016488,230,-1283,-1531,1044,-225,-69
7749,19016498,238,-1273,-1544,1041,-230,-68
7750,19016508,197,-1270,-1559,1046,-229,-70
7751,19016518,225,-1271,-1554,1053,-227,-80
7752,19016528,247,-1273,-1548,1043,-227,-73
7753,19016538,215,-1289,-1540,1038,-233,-59
7754,19016548,214,-1274,-1546,1031,-233,-68
7755,19016558,239,-1264,-1545,1031,-231,-73
7756,19016568,231,-1280,-1532,1031,-229,-68
7757,19016578,210,-1278,-1561,1021,-237,-74
7758,19016588,210,-1264,-1551,1023,-239,-71
7759,19016598,229,-1264,-1544,1033,-228,-70
7760,19016608,215,-1276,-1550,1045,-220,-77
7761,19016618,206,-1268,-1549,1057,-209,-81
7762,19016628,244,-1275,-1548,1044,-223,-74
7763,19016638,215,-1277,-1535,1046,-228,-69
7764,19016648,211,-1268,-1541,1050,-214,-75
7765,19016658,211,-1281,-1540,1041,-223,-73
7766,19016668,240,-1277,-1545,1029,-228,-69
7767,19016678,212,-1279,-1561,1027,-228,-68
7768,19016688,220,-1268,-1554,1020,-237,-76
7769,19016698,237,-1259,-1562,1018,-242,-68
7770,19016708,227,-1273,-1567,1028,-236,-66
7771,19016718,191,-1260,-1543,1036,-234,-69
7772,19016728,217,-1271,-1552,1041,-233,-67
7773,19016738,239,-1265,-1559,1040,-234,-256
7774,19016734,240,-1266,-1559,1041,-235,-62
7775,19016744,206,-1271,-1567,1041,-238,-64
7776,19016754,195,-1274,-1564,1060,-220,-77
7777,19016764,240,-1263,-1543,1065,-213,-74
7778,19016774,215,-1278,-1546,1056,-225,-66
7779,19016784,204,-1266,-1551,1056,-238,-75
7780,19016794,222,-1266,-1550,1055,-231,-76
7781,19016804,241,-1267,-1546,1062,-221,-59
7782,19016814,215,-1268,-1549,1058,-218,-65
7783,19016824,213,-1281,-1558,1058,-221,-72
7784,19016834,241,-1260,-1546,1058,-223,-74
7785,19016844,223,-1260,-1545,1045,-226,-72
7786,19016854,203,-1278,-1547,1054,-224,-65
7787,19016864,211,-1263,-1553,1060,-220,-80
7788,19016874,238,-1268,-1556,1063,-222,-76
7789,19016884,206,-1280,-1542,1055,-226,-69
7790,19016894,205,-1276,-1556,1052,-225,-69
7791,19016904,234,-1271,-1559,1049,-230,-73
7792,19016914,227,-1270,-1557,1049,-221,-78
7793,19016924,211,-1258,-1544,1046,-222,-76
7794,19016934,221,-1259,-1549,1033,-232,-78
7795,19016944,242,-1267,-1559,1024,-237,-75
7796,19016954,212,-1280,-1555,1030,-235,-72
7797,19016964,198,-1271,-1551,1034,-233,-78
7798,19016974,228,-1277,-1562,1044,-225,-79
7799,19016984,231,-1274,-1548,1043,-229,-256
7800,19016981,232,-1274,-1548,1044,-229,-76
7801,19016991,198,-1283,-1547,1037,-235,-74
7802,19017001,208,-1272,-1564,1034,-233,-69
7803,19017011,228,-1266,-1557,1045,-225,-78
7804,19017021,214,-1273,-1539,1052,-213,-82
7805,19017031,203,-1264,-1536,1045,-219,-73
7806,19017041,233,-1271,-1548,1033,-229,-73
7807,19017051,225,-1273,-1563,1034,-225,-75
7808,19017061,209,-1274,-1545,1042,-224,-75
7809,19017071,219,-1270,-1569,1045,-222,-76
7810,19017081,223,-1255,-1561,1046,-223,-73
7811,19017091,198,-1271,-1548,1045,-227,-69
7812,19017101,208,-1287,-1551,1050,-223,-69
7813,19017111,237,-1274,-1537,1051,-220,-72
7814,19017121,217,-1278,-1539,1047,-225,-77
7815,19017131,204,-1266,-1545,1037,-229,-73
7816,19017141,219,-1272,-1544,1038,-228,-70
7817,19017151,231,-1268,-1556,1025,-234,-67
7818,19017161,210,-1271,-1559,1030,-234,-65
7819,19017171,204,-1260,-1569,1036,-228,-72
7820,19017181,217,-1260,-1552,1046,-222,-74
7821,19017191,223,-1270,-1548,1062,-213,-76
7822,19017201,207,-1269,-1548,1064,-214,-81
7823,19017211,216,-1273,-1543,1062,-219,-74
7824,19017221,230,-1273,-1550,1053,-221,-66
7825,19017231,196,-1284,-1551,1048,-224,-256
7826,19017228,196,-1284,-1551,1049,-225,-67
7827,19017238,214,-1286,-1531,1048,-215,-71
7828,19017248,231,-1269,-1552,1048,-217,-71
7829,19017258,241,-1273,-1568,1039,-225,-76
7830,19017268,200,-1275,-1551,1043,-222,-73
7831,19017278,205,-1275,-1570,1044,-220,-70
7832,19017288,238,-1264,-1568,1042,-230,-70
7833,19017298,213,-1264,-1551,1046,-223,-67
7834,19017308,190,-1272,-1552,1049,-221,-66
7835,19017318,234,-1281,-1537,1036,-233,-66
7836,19017328,213,-1279,-1556,1028,-233,-68
7837,19017338,202,-1275,-1553,1032,-226,-78
7838,19017348,206,-1254,-1561,1023,-234,-78
7839,19017358,234,-1253,-1562,1030,-232,-77
7840,19017368,205,-1272,-1570,1036,-223,-79
7841,19017378,196,-1268,-1550,1055,-213,-80
7842,19017388,219,-1271,-1541,1047,-223,-82
7843,19017398,227,-1259,-1555,1045,-229,-79
7844,19017408,203,-1281,-1542,1034,-229,-74
7845,19017418,201,-1261,-1561,1032,-233,-73
7846,19017428,230,-1256,-1553,1025,-237,-80
7847,19017438,228,-1262,-1544,1025,-238,-73
7848,19017448,198,-1267,-1558,1025,-234,-72
7849,19017458,219,-1265,-1563,1026,-235,-70
7850,19017468,221,-1275,-1577,1028,-235,-68
7851,19017478,201,-1258,-1568,1033,-234,-256
