sequence,timestamp_ms,accel_x,accel_y,accel_z,gyro_x,gyro_y,gyro_z
8632,19024874,221,-1281,-1548,1048,-223,-80
8633,19024884,236,-1280,-1534,1039,-226,-70
8634,19024894,213,-1301,-1543,1036,-225,-72
8635,19024904,198,-1298,-1539,1033,-233,-75
8636,19024914,237,-1271,-1529,1034,-229,-73
8637,19024924,235,-1280,-1526,1040,-222,-77
8638,19024934,206,-1283,-1543,1045,-217,-80
8639,19024944,226,-1270,-1548,1040,-225,-71
8640,19024954,244,-1286,-1556,1042,-227,-74
8641,19024964,221,-1306,-1544,1044,-224,-75
8642,19024974,212,-1288,-1530,1053,-220,-77
8643,19024984,229,-1286,-1532,1056,-218,-81
8644,19024994,235,-1290,-1539,1056,-223,-72
8645,19025004,208,-1297,-1546,1057,-219,-74
8646,19025014,215,-1308,-1525,1062,-212,-75
8647,19025024,254,-1279,-1536,1057,-215,-75
8648,19025034,231,-1285,-1534,1047,-226,-77
8649,19025044,220,-1286,-1532,1043,-224,-77
8650,19025054,238,-1283,-1539,1042,-214,-71
8651,19025064,240,-1275,-1543,1041,-222,-74
8652,19025074,200,-1282,-1554,1037,-228,-73
8653,19025084,220,-1282,-1538,1043,-223,-71
8654,19025094,236,-1301,-1541,1046,-220,-69
8655,19025104,226,-1293,-1535,1048,-221,-72
8656,19025114,200,-1293,-1526,1051,-217,-76
8657,19025124,239,-1277,-1530,1045,-218,-256
8658,19025121,240,-1278,-1530,1046,-218,-79
8659,19025131,223,-1293,-1549,1035,-227,-70
8660,19025141,207,-1284,-1555,1035,-227,-72
8661,19025151,225,-1291,-1531,1055,-215,-81
8662,19025161,239,-1281,-1530,1047,-216,-76
8663,19025171,216,-1285,-1544,1036,-233,-63
8664,19025181,195,-1302,-1520,1045,-222,-74
8665,19025191,248,-1296,-1522,1051,-212,-80
8666,19025201,228,-1272,-1532,1029,-225,-73
8667,19025211,207,-1290,-1553,1035,-231,-69
8668,19025221,214,-1284,-1552,1053,-197,-74
8669,19025231,240,-1268,-1535,1076,-193,-66
8670,19025241,218,-1291,-1528,1083,-198,-78
8671,19025251,226,-1313,-1510,1071,-196,-56
8672,19025261,229,-1287,-1536,1055,-217,-45
8673,19025271,253,-1267,-1491,1044,-231,-55
8674,19025281,257,-1242,-1429,1077,-210,-14
8675,19025291,314,-1225,-1431,1106,-325,123
8676,19025301,201,-1156,-1481,1062,-586,387
8677,19025311,252,-343,-1378,1250,-800,790
8678,19025321,432,-1630,-1761,1644,-999,631
8679,19025331,-82,-1311,-1904,581,-1198,1007
8680,19025341,71,-1294,-1605,1288,-556,138
8681,19025351,120,-1343,-1440,1587,-90,90
8682,19025361,97,-1353,-1457,1392,-68,38
8683,19025371,40,-1347,-1580,1247,-128,-256
8684,19025368,41,-1348,-1580,1247,-129,-8
8685,19025378,-12,-1328,-1688,1230,-20,-120
8686,19025388,45,-1361,-1661,1541,303,-275
8687,19025398,174,-1357,-1559,1861,622,-496
8688,19025408,255,-1377,-1369,1856,696,-608
8689,19025418,245,-1410,-1335,1641,506,-600
8690,19025428,251,-1372,-1381,1339,256,-562
8691,19025438,252,-1400,-1417,1232,147,-481
8692,19025448,231,-1464,-1428,1154,141,-452
8693,19025458,116,-800,-1562,1020,172,-440
8694,19025468,479,-1392,-1433,592,124,-693
8695,19025478,369,-1352,-1252,1643,478,-627
8696,19025488,299,-1343,-1411,1024,147,-376
8697,19025498,277,-1408,-1490,973,-36,-230
8698,19025508,323,-1350,-1472,1019,-63,-183
8699,19025518,324,-1363,-1410,1084,-29,-247
8700,19025528,331,-1349,-1391,1102,-55,-204
8701,19025538,345,-1352,-1419,1024,-157,-124
8702,19025548,314,-1375,-1440,969,-239,-68
8703,19025558,296,-1380,-1441,962,-251,-71
8704,19025568,329,-1363,-1433,973,-250,-86
8705,19025578,331,-1351,-1437,953,-290,-67
8706,19025588,309,-1352,-1426,940,-313,-38
8707,19025598,290,-1371,-1448,920,-352,7
8708,19025608,311,-1360,-1462,897,-386,41
8709,19025618,290,-1362,-1471,895,-388,0
8710,19025614,290,-1363,-1471,896,-389,13
8711,19025624,262,-1360,-1477,899,-375,-6
8712,19025634,273,-1361,-1502,916,-348,-14
8713,19025644,294,-1339,-1471,959,-304,-45
8714,19025654,282,-1333,-1467,972,-290,-63
8715,19025664,274,-1340,-1483,956,-306,-47
8716,19025674,294,-1343,-1471,947,-330,-26
8717,19025684,303,-1335,-1475,943,-333,-29
8718,19025694,260,-1341,-1483,944,-332,-34
8719,19025704,286,-1357,-1471,945,-329,-34
8720,19025714,291,-1336,-1482,936,-331,-34
8721,19025724,268,-1338,-1475,928,-340,-37
8722,19025734,246,-1342,-1511,912,-343,-34
8723,19025744,260,-1343,-1512,926,-321,-39
8724,19025754,271,-1326,-1508,971,-276,-68
8725,19025764,253,-1321,-1484,985,-264,-82
8726,19025774,260,-1318,-1492,988,-274,-70
8727,19025784,283,-1331,-1490,982,-288,-58
8728,19025794,243,-1342,-1485,979,-300,-48
8729,19025804,250,-1338,-1479,979,-308,-45
8730,19025814,291,-1337,-1479,976,-311,-47
8731,19025824,275,-1339,-1474,961,-314,-47
8732,19025834,249,-1340,-1497,938,-318,-36
8733,19025844,253,-1319,-1518,935,-316,-36
8734,19025854,277,-1317,-1516,972,-268,-67
8735,19025864,247,-1312,-1496,991,-236,-256
8736,19025861,247,-1313,-1496,992,-237,-81
8737,19025871,260,-1302,-1499,990,-245,-72
8738,19025881,265,-1305,-1517,979,-266,-58
8739,19025891,263,-1319,-1532,974,-275,-53
8740,19025901,208,-1310,-1517,983,-270,-51
8741,19025911,244,-1312,-1515,1014,-243,-66
8742,19025921,265,-1323,-1488,1030,-226,-75
8743,19025931,247,-1321,-1510,1027,-231,-71
8744,19025941,221,-1307,-1504,1020,-240,-65
8745,19025951,249,-1313,-1518,1025,-240,-63
8746,19025961,254,-1323,-1502,1038,-228,-68
8747,19025971,242,-1316,-1514,1049,-222,-72
8748,19025981,247,-1317,-1491,1053,-222,-73
8749,19025991,280,-1308,-1510,1046,-229,-68
8750,19026001,243,-1317,-1504,1033,-241,-64
8751,19026011,216,-1311,-1523,1029,-241,-65
8752,19026021,256,-1314,-1517,1039,-239,-62
8753,19026031,257,-1313,-1501,1064,-209,-78
8754,19026041,241,-1318,-1493,1073,-202,-85
8755,19026051,241,-1320,-1517,1054,-218,-80
8756,19026061,261,-1327,-1510,1049,-229,-63
8757,19026071,238,-1305,-1507,1050,-224,-80
8758,19026081,233,-1333,-1483,1055,-214,-82
8759,19026091,256,-1310,-1512,1041,-227,-73
8760,19026101,258,-1313,-1520,1040,-228,-79
8761,19026111,226,-1319,-1514,1052,-215,-256
8762,19026107,227,-1320,-1514,1053,-216,-80
8763,19026117,255,-1315,-1520,1058,-216,-77
8764,19026127,267,-1320,-1515,1055,-217,-79
8765,19026137,236,-1316,-1500,1061,-215,-77
8766,19026147,223,-1334,-1497,1055,-207,-77
8767,19026157,250,-1306,-1507,1044,-222,-69
8768,19026167,264,-1303,-1516,1040,-227,-69
8769,19026177,238,-1313,-1517,1058,-214,-77
8770,19026187,240,-1315,-1507,1060,-209,-78
8771,19026197,268,-1313,-1519,1056,-214,-71
8772,19026207,251,-1326,-1507,1057,-221,-74
8773,19026217,238,-1334,-1507,1058,-214,-79
8774,19026227,257,-1316,-1502,1049,-227,-71
8775,19026237,257,-1322,-1500,1061,-225,-72
8776,19026247,237,-1323,-1491,1066,-213,-76
8777,19026257,254,-1324,-1492,1055,-217,-69
8778,19026267,268,-1311,-1516,1046,-229,-68
8779,19026277,245,-1325,-1503,1066,-207,-78
8780,19026287,229,-1311,-1493,1065,-204,-81
8781,19026297,256,-1308,-1502,1046,-221,-69
8782,19026307,258,-1316,-1499,1043,-227,-66
8783,19026317,240,-1323,-1519,1049,-216,-75
8784,19026327,248,-1317,-1510,1044,-225,-71
8785,19026337,263,-1308,-1498,1049,-223,-70
8786,19026347,240,-1331,-1495,1051,-217,-74
8787,19026357,236,-1326,-1503,1047,-217,-256
8788,19026354,237,-1327,-1503,1048,-217,-71
8789,19026364,263,-1325,-1496,1045,-221,-69
8790,19026374,259,-1316,-1514,1039,-225,-74
8791,19026384,226,-1325,-1496,1036,-227,-70
8792,19026394,245,-1329,-1503,1038,-226,-73
8793,19026404,266,-1319,-1517,1032,-232,-75
8794,19026414,243,-1333,-1507,1035,-224,-66
8795,19026424,227,-1313,-1505,1035,-227,-71
8796,19026434,273,-1310,-1507,1032,-232,-75
8797,19026444,259,-1321,-1517,1034,-229,-71
8798,19026454,232,-1314,-1514,1039,-224,-71
8799,19026464,252,-1321,-1504,1045,-221,-77
8800,19026474,263,-1315,-1521,1042,-226,-74
8801,19026484,245,-1313,-1500,1046,-225,-72
8802,19026494,224,-1318,-1501,1041,-225,-73
8803,19026504,265,-1310,-1504,1033,-235,-70
8804,19026514,252,-1329,-1496,1034,-231,-66
8805,19026524,231,-1323,-1520,1039,-225,-72
8806,19026534,236,-1316,-1501,1041,-226,-73
8807,19026544,275,-1317,-1512,1039,-229,-71
8808,19026554,234,-1322,-1505,1041,-223,-73
8809,19026564,225,-1315,-1516,1043,-222,-68
8810,19026574,265,-1319,-1520,1043,-225,-71
8811,19026584,261,-1318,-1519,1043,-227,-74
8812,19026594,222,-1323,-1515,1050,-215,-71
8813,19026604,233,-1322,-1500,1055,-216,-256
8814,19026601,234,-1322,-1500,1056,-216,-64
8815,19026611,252,-1316,-1518,1062,-218,-78
8816,19026621,241,-1317,-1497,1076,-211,-86
8817,19026631,233,-1326,-1517,1062,-220,-74
8818,19026641,252,-1320,-1518,1054,-218,-59
8819,19026651,278,-1321,-1496,1070,-221,-95
8820,19026661,236,-1341,-1473,1050,-207,-66
8821,19026671,239,-1316,-1495,1040,-218,-63
8822,19026681,269,-1314,-1525,1024,-231,-77
8823,19026691,244,-1326,-1518,1035,-222,-64
8824,19026701,227,-1318,-1518,1045,-210,-74
8825,19026711,262,-1311,-1496,1045,-217,-65
8826,19026721,249,-1315,-1513,1050,-217,-66
8827,19026731,211,-1324,-1513,1046,-217,-69
8828,19026741,233,-1334,-1501,1053,-216,-69
8829,19026751,257,-1310,-1501,1049,-218,-74
8830,19026761,238,-1329,-1506,1052,-219,-72
8831,19026771,251,-1311,-1516,1046,-222,-70
8832,19026781,255,-1317,-1515,1047,-222,-65
8833,19026791,252,-1304,-1498,1051,-214,-73
8834,19026801,236,-1321,-1511,1049,-216,-74
8835,19026811,249,-1320,-1508,1043,-224,-71
8836,19026821,265,-1309,-1505,1046,-219,-69
8837,19026831,241,-1321,-1508,1048,-223,-71
8838,19026841,226,-1317,-1508,1049,-221,-75
8839,19026851,250,-1316,-1496,1054,-217,-256
8840,19026847,251,-1317,-1496,1055,-218,-71
8841,19026857,251,-1327,-1497,1049,-217,-72
8842,19026867,232,-1311,-1517,1046,-228,-71
8843,19026877,258,-1322,-1522,1049,-220,-80
8844,19026887,276,-1320,-1511,1056,-213,-78
8845,19026897,241,-1325,-1502,1057,-215,-77
8846,19026907,234,-1314,-1499,1055,-215,-79
8847,19026917,261,-1311,-1509,1055,-220,-71
8848,19026927,254,-1323,-1510,1052,-220,-68
8849,19026937,232,-1324,-1490,1050,-220,-71
8850,19026947,242,-1324,-1516,1044,-225,-71
8851,19026957,259,-1315,-1519,1045,-221,-75
8852,19026967,248,-1330,-1521,1049,-215,-80
8853,19026977,222,-1334,-1492,1055,-210,-77
8854,19026987,257,-1314,-1503,1052,-215,-75
8855,19026997,251,-1321,-1516,1046,-226,-75
8856,19027007,222,-1326,-1497,1043,-228,-73
8857,19027017,249,-1322,-1496,1046,-226,-74
8858,19027027,272,-1318,-1505,1044,-226,-76
8859,19027037,261,-1307,-1533,1052,-218,-78
8860,19027047,250,-1327,-1508,1069,-236,-96
8861,19027057,245,-1313,-1509,1032,-213,-79
8862,19027067,264,-1320,-1499,1056,-213,-50
8863,19027077,239,-1320,-1500,1043,-225,-93
8864,19027087,245,-1318,-1499,1039,-219,-69
8865,19027097,256,-1302,-1519,1038,-220,-256
8866,19027094,256,-1303,-1519,1039,-220,-67
8867,19027104,242,-1310,-1512,1048,-210,-81
8868,19027114,240,-1329,-1512,1063,-191,-79
8869,19027124,269,-1306,-1502,1062,-196,-79
8870,19027134,255,-1325,-1499,1056,-207,-75
8871,19027144,230,-1318,-1493,1058,-205,-72
8872,19027154,239,-1324,-1500,1052,-210,-76
8873,19027164,261,-1318,-1498,1044,-213,-71
8874,19027174,257,-1327,-1493,1046,-218,-73
8875,19027184,234,-1319,-1506,1042,-217,-76
8876,19027194,259,-1316,-1497,1033,-223,-65
8877,19027204,254,-1305,-1499,1040,-226,-74
8878,19027214,230,-1321,-1503,1040,-223,-77
8879,19027224,224,-1323,-1505,1036,-229,-61
8880,19027234,274,-1323,-1509,1040,-229,-76
8881,19027244,242,-1319,-1502,1039,-228,-78
8882,19027254,233,-1325,-1488,1046,-224,-73
8883,19027264,260,-1323,-1507,1039,-222,-79
8884,19027274,264,-1322,-1499,1038,-230,-68
8885,19027284,231,-1313,-1502,1041,-226,-78
8886,19027294,236,-1314,-1487,1041,-222,-76
8887,19027304,249,-1316,-1509,1040,-227,-73
8888,19027314,229,-1323,-1511,1032,-232,-74
8889,19027324,233,-1326,-1500,1039,-227,-68
8890,19027334,252,-1318,-1505,1045,-220,-77
8891,19027344,250,-1315,-1521,1052,-211,-256
8892,19027341,251,-1316,-1521,1053,-212,-79
8893,19027351,225,-1321,-1502,1057,-209,-78
8894,19027361,240,-1316,-1502,1062,-206,-83
8895,19027371,275,-1320,-1512,1057,-214,-76
8896,19027381,234,-1319,-1521,1049,-221,-70
8897,19027391,223,-1316,-1501,1051,-218,-77
8898,19027401,262,-1324,-1504,1053,-214,-76
8899,19027411,256,-1317,-1503,1045,-223,-72
8900,19027421,224,-1320,-1501,1044,-222,-78
8901,19027431,250,-1327,-1512,1045,-217,-75
8902,19027441,260,-1318,-1518,1052,-217,-76
8903,19027451,250,-1318,-1496,1049,-219,-79
8904,19027461,223,-1334,-1490,1051,-219,-70
8905,19027471,258,-1324,-1502,1046,-221,-71
8906,19027481,253,-1322,-1501,1037,-229,-65
8907,19027491,227,-1337,-1489,1037,-223,-68
8908,19027501,246,-1327,-1506,1036,-223,-77
8909,19027511,264,-1306,-1512,1033,-228,-74
8910,19027521,244,-1328,-1510,1037,-224,-69
8911,19027531,230,-1324,-1516,1044,-214,-68
8912,19027541,255,-1316,-1501,1049,-209,-69
8913,19027551,267,-1317,-1493,1053,-206,-74
8914,19027561,225,-1325,-1504,1044,-218,-73
8915,19027571,236,-1329,-1508,1041,-218,-72
8916,19027581,267,-1317,-1508,1046,-211,-73
8917,19027591,240,-1317,-1505,1042,-215,-256
8918,19027587,241,-1317,-1505,1043,-216,-74
8919,19027597,234,-1323,-1511,1043,-221,-73
8920,19027607,262,-1315,-1532,1045,-223,-70
8921,19027617,262,-1311,-1506,1049,-220,-68
8922,19027627,225,-1329,-1490,1054,-218,-70
8923,19027637,237,-1325,-1494,1050,-217,-70
8924,19027647,269,-1329,-1502,1047,-221,-71
8925,19027657,239,-1317,-1514,1041,-222,-73
8926,19027667,237,-1322,-1510,1036,-223,-68
8927,19027677,258,-1314,-1498,1047,-217,-75
8928,19027687,258,-1319,-1506,1046,-220,-81
8929,19027697,227,-1327,-1501,1037,-227,-69
8930,19027707,245,-1322,-1497,1033,-236,-69
8931,19027717,264,-1315,-1501,1040,-228,-80
8932,19027727,250,-1322,-1505,1034,-227,-78
8933,19027737,222,-1333,-1518,1034,-235,-73
8934,19027747,258,-1318,-1519,1038,-226,-80
8935,19027757,239,-1303,-1518,1045,-225,-78
8936,19027767,232,-1323,-1518,1047,-220,-79
8937,19027777,234,-1339,-1496,1061,-205,-76
8938,19027787,265,-1309,-1498,1056,-211,-82
8939,19027797,243,-1315,-1496,1043,-221,-79
8940,19027807,235,-1319,-1500,1035,-225,-71
8941,19027817,259,-1313,-1513,1032,-228,-76
8942,19027827,255,-1317,-1510,1040,-223,-73
8943,19027837,231,-1323,-1514,1050,-212,-256
8944,19027834,232,-1324,-1514,1051,-212,-78
8945,19027844,250,-1327,-1509,1048,-217,-77
8946,19027854,265,-1322,-1516,1048,-216,-72
8947,19027864,240,-1329,-1506,1043,-221,-69
8948,19027874,242,-1325,-1486,1042,-223,-72
8949,19027884,275,-1328,-1504,1037,-222,-75
8950,19027894,267,-1316,-1515,1038,-225,-76
8951,19027904,227,-1314,-1503,1044,-217,-72
8952,19027914,246,-1309,-1506,1042,-218,-74
8953,19027924,262,-1310,-1514,1036,-226,-71
8954,19027934,230,-1329,-1517,1038,-225,-71
8955,19027944,232,-1321,-1504,1046,-215,-78
8956,19027954,268,-1325,-1494,1048,-213,-77
8957,19027964,249,-1314,-1518,1034,-228,-71
8958,19027974,225,-1322,-1504,1033,-229,-70
8959,19027984,253,-1319,-1497,1039,-226,-74
8960,19027994,263,-1313,-1500,1036,-231,-80
8961,19028004,237,-1331,-1503,1030,-233,-60
8962,19028014,234,-1324,-1513,1028,-236,-72
8963,19028024,263,-1317,-1506,1033,-227,-77
8964,19028034,255,-1306,-1522,1037,-227,-73
8965,19028044,232,-1323,-1522,1038,-228,-74
8966,19028054,233,-1322,-1511,1040,-229,-71
8967,19028064,268,-1321,-1510,1040,-224,-69
8968,19028074,239,-1328,-1501,1039,-226,-73
8969,19028084,225,-1316,-1501,1043,-221,-256
8970,19028081,225,-1316,-1501,1043,-221,-78
8971,19028091,254,-1310,-1512,1044,-222,-83
8972,19028101,254,-1306,-1524,1039,-229,-80
8973,19028111,217,-1306,-1516,1045,-223,-78
8974,19028121,248,-1323,-1506,1042,-224,-77
8975,19028131,259,-1314,-1513,1038,-231,-78
8976,19028141,236,-1310,-1510,1041,-228,-78
8977,19028151,234,-1315,-1503,1040,-223,-81
8978,19028161,253,-1307,-1510,1037,-227,-78
8979,19028171,248,-1314,-1507,1033,-231,-75
8980,19028181,213,-1329,-1514,1035,-227,-76
8981,19028191,255,-1306,-1512,1040,-220,-79
8982,19028201,271,-1314,-1499,1042,-221,-80
8983,19028211,240,-1317,-1514,1033,-232,-76
8984,19028221,226,-1320,-1510,1026,-238,-69
8985,19028231,247,-1313,-1509,1024,-237,-70
8986,19028241,246,-1305,-1509,1032,-231,-79
8987,19028251,230,-1306,-1517,1028,-229,-73
8988,19028261,225,-1307,-1509,1023,-244,-64
8989,19028271,271,-1317,-1515,1033,-229,-82
8990,19028281,225,-1302,-1518,1023,-236,-67
8991,19028291,216,-1313,-1523,1050,-226,-82
8992,19028301,255,-1292,-1530,1046,-204,-82
8993,19028311,247,-1321,-1506,1062,-222,-62
8994,19028321,251,-1315,-1518,1045,-209,-88
8995,19028331,236,-1329,-1494,1054,-219,-256
