sequence,timestamp_ms,accel_x,accel_y,accel_z,gyro_x,gyro_y,gyro_z
702,18028261,317,-98,-1967,832,-74,-32
703,18028271,360,-84,-1974,840,-75,-34
704,18028281,318,-96,-1970,840,-88,-38
705,18028291,312,-92,-1974,847,-94,-38
706,18028301,323,-101,-1979,852,-96,-37
707,18028311,354,-114,-1982,853,-103,-32
708,18028321,319,-106,-1988,842,-122,-26
709,18028331,303,-104,-1981,832,-131,-33
710,18028341,329,-111,-1990,833,-127,-42
711,18028351,359,-130,-1999,835,-119,-41
712,18028361,239,-61,-1995,757,-159,-20
713,18028371,330,-128,-1973,878,-61,-32
714,18028381,331,-96,-1981,823,-86,-44
715,18028391,321,-127,-1970,841,-87,-38
716,18028401,298,-100,-1999,836,-104,-35
717,18028411,310,-74,-2014,824,-104,-46
718,18028421,312,-77,-2006,829,-59,-35
719,18028431,325,-112,-1964,864,-26,-28
720,18028441,334,-99,-1952,858,-47,-37
721,18028451,335,-104,-1969,850,-75,-40
722,18028461,326,-103,-1983,854,-86,-37
723,18028471,321,-110,-1984,851,-87,-39
724,18028481,344,-105,-1993,841,-92,-41
725,18028491,323,-120,-1971,837,-84,-32
726,18028501,298,-125,-1967,844,-72,-34
727,18028511,325,-111,-1962,841,-74,-256
728,18028508,325,-111,-1962,842,-75,-38
729,18028518,341,-118,-1973,839,-93,-39
730,18028528,319,-119,-1986,835,-105,-35
731,18028538,308,-122,-1994,830,-102,-36
732,18028548,331,-92,-1983,831,-101,-38
733,18028558,320,-109,-1989,834,-96,-38
734,18028568,287,-104,-2013,825,-80,-31
735,18028578,309,-95,-1977,835,-64,-33
736,18028588,329,-104,-1981,841,-57,-38
737,18028598,319,-94,-1976,836,-68,-38
738,18028608,307,-116,-1970,839,-68,-32
739,18028618,336,-123,-1972,836,-75,-36
740,18028628,322,-113,-1976,825,-85,-41
741,18028638,289,-100,-2004,813,-83,-36
742,18028648,309,-121,-1976,814,-64,-30
743,18028658,345,-117,-1966,823,-56,-41
744,18028668,305,-105,-1981,812,-70,-46
745,18028678,309,-113,-1988,812,-78,-40
746,18028688,323,-104,-1977,819,-72,-38
747,18028698,321,-102,-1982,817,-72,-41
748,18028708,304,-115,-1960,822,-76,-40
749,18028718,315,-114,-1983,822,-83,-39
750,18028728,335,-125,-1975,819,-79,-39
751,18028738,319,-112,-1987,803,-80,-40
752,18028748,306,-113,-1983,796,-82,-40
753,18028758,336,-110,-1978,806,-71,-256
754,18028755,337,-110,-1978,806,-72,-40
755,18028765,346,-103,-1968,803,-79,-49
756,18028775,307,-99,-1982,798,-96,-48
757,18028785,303,-107,-1979,801,-97,-40
758,18028795,330,-116,-1955,801,-93,-40
759,18028805,297,-109,-1970,794,-101,-53
760,18028815,290,-114,-1992,797,-109,-63
761,18028825,308,-96,-2005,796,-108,-52
762,18028835,298,-95,-1988,799,-98,-47
763,18028845,286,-96,-1988,814,-86,-62
764,18028855,302,-78,-1983,834,-87,-63
765,18028865,332,-109,-1985,865,-62,-48
766,18028875,329,-111,-1994,854,-47,-45
767,18028885,305,-118,-1965,836,-68,-35
768,18028895,345,-124,-1949,834,-60,-47
769,18028905,345,-133,-1946,834,-78,-36
770,18028915,306,-139,-1964,816,-113,-35
771,18028925,311,-109,-1976,792,-131,-36
772,18028935,314,-98,-1993,802,-118,-40
773,18028945,299,-103,-1992,819,-102,-48
774,18028955,290,-103,-1991,808,-111,-54
775,18028965,319,-109,-1983,815,-93,-53
776,18028975,306,-119,-1976,803,-84,-52
777,18028985,294,-135,-1958,792,-72,-52
778,18028995,334,-164,-1906,761,-57,-65
779,18029005,325,-184,-1938,714,-77,-256
780,18029001,326,-184,-1938,715,-78,-77
781,18029011,285,-201,-1911,651,-64,-105
782,18029021,331,-177,-1906,569,37,-147
783,18029031,371,-135,-1925,491,50,-209
784,18029041,371,-80,-1947,500,-20,-205
785,18029051,310,-26,-2003,506,-114,-179
786,18029061,363,19,-2006,546,-109,-146
787,18029071,335,-46,-1981,654,-114,-41
788,18029081,295,-48,-1958,728,-171,3
789,18029091,305,-26,-2056,678,-187,-79
790,18029101,273,-28,-2046,764,-113,-67
791,18029111,239,-45,-2026,754,-63,-36
792,18029121,283,-55,-1926,804,112,-75
793,18029131,343,-104,-1873,881,209,-37
794,18029141,353,-116,-1858,859,124,-29
795,18029151,347,-91,-1916,766,41,-79
796,18029161,284,32,-2036,617,-34,-73
797,18029171,291,58,-2104,619,-42,-65
798,18029181,321,17,-2078,793,103,14
799,18029191,382,-30,-1990,872,174,36
800,18029201,364,-195,-2046,1113,226,-3
801,18029211,261,-36,-1998,952,45,14
802,18029221,324,-34,-1929,940,125,-120
803,18029231,411,23,-1960,814,167,-136
804,18029241,379,-7,-1980,716,21,-59
805,18029251,327,-61,-1996,714,-81,0
806,18029248,327,-62,-1996,715,-82,33
807,18029258,296,-62,-2032,710,-60,-6
808,18029268,315,-17,-2039,694,-34,-74
809,18029278,359,-20,-2011,739,46,-97
810,18029288,366,-40,-2003,763,68,-84
811,18029298,370,-56,-1966,775,52,-58
812,18029308,430,-17,-1945,755,3,-35
813,18029318,379,-58,-1954,780,-70,13
814,18029328,382,-33,-1957,784,-114,21
815,18029338,384,-19,-1981,705,-148,38
816,18029348,383,-37,-1982,689,-148,79
817,18029358,368,-54,-1976,648,-139,80
818,18029368,338,-24,-1980,626,-133,57
819,18029378,350,-61,-1994,642,-141,43
820,18029388,309,-40,-1989,658,-128,24
821,18029398,365,-49,-1965,660,-81,-25
822,18029408,473,-27,-1960,670,-99,-35
823,18029418,465,41,-1892,606,-224,63
824,18029428,451,53,-1952,464,-404,144
825,18029438,468,7,-1934,543,-423,176
826,18029448,86,621,-1570,442,-721,320
827,18029458,781,-200,-2073,920,-576,163
828,18029468,-239,184,-2279,-151,-1362,523
829,18029478,151,56,-2114,449,-566,286
830,18029488,299,-25,-2028,612,-110,95
831,18029498,218,10,-1977,681,-114,0
832,18029495,218,10,-1977,682,-114,47
833,18029505,175,117,-2076,680,-143,0
834,18029515,222,154,-2087,764,33,-32
835,18029525,217,133,-2068,927,184,20
836,18029535,256,52,-1984,1038,331,20
837,18029545,275,26,-1952,1060,353,-9
838,18029555,286,27,-1933,1003,325,-32
839,18029565,282,-22,-1934,998,299,-25
840,18029575,283,-23,-1901,966,263,-24
841,18029585,918,-919,-2469,938,244,-40
842,18029595,-403,291,-1855,356,-211,291
843,18029605,827,-136,-1659,1220,947,-495
844,18029615,224,-50,-1885,904,29,24
845,18029625,389,-47,-1951,854,62,-108
846,18029635,303,16,-1953,765,-15,-130
847,18029645,383,30,-1950,816,80,-181
848,18029655,370,31,-1952,794,35,-161
849,18029665,376,14,-1967,809,29,-138
850,18029675,367,14,-1953,800,15,-136
851,18029685,399,18,-1981,789,-27,-147
852,18029695,539,120,-2435,728,-88,-136
853,18029705,85,39,-2203,565,-474,-47
854,18029715,424,-81,-1840,1262,139,-232
855,18029725,627,20,-1716,914,570,-347
856,18029735,548,-143,-1743,893,121,-183
857,18029745,401,17,-1987,631,-167,-256
858,18029741,402,17,-1987,632,-168,-101
859,18029751,360,11,-2053,553,-277,-69
860,18029761,411,12,-2166,670,-209,-91
861,18029771,244,123,-2079,571,-227,-93
862,18029781,351,-4,-1907,861,-23,-145
863,18029791,493,41,-1920,803,130,-187
864,18029801,271,38,-1905,728,-156,-62
865,18029811,327,37,-1870,813,-127,-70
866,18029821,362,50,-1899,750,-61,-95
867,18029831,335,30,-1983,747,-162,-22
868,18029841,304,22,-2047,716,-188,-16
869,18029851,308,47,-2062,742,-170,-52
870,18029861,318,67,-2053,789,-139,-63
871,18029871,362,39,-1959,864,-28,-69
872,18029881,369,-1,-1875,893,17,-72
873,18029891,388,7,-1868,851,-35,-75
874,18029901,375,9,-1896,790,-88,-63
875,18029911,344,35,-1941,752,-117,-50
876,18029921,343,35,-1963,738,-122,-43
877,18029931,508,-159,-2157,758,-130,-38
878,18029941,306,248,-2231,590,-291,13
879,18029951,135,1,-1961,897,-307,-26
880,18029961,625,-26,-1843,1029,294,-228
881,18029971,479,-35,-1844,804,42,-105
882,18029981,395,-34,-1981,796,-243,20
883,18029991,353,81,-2066,604,-236,-256
884,18029988,354,81,-2066,605,-237,-34
885,18029998,332,18,-1986,737,-213,-51
886,18030008,375,55,-2006,738,-95,-88
887,18030018,290,35,-1915,724,-123,-67
888,18030028,391,1,-1951,781,-94,-78
889,18030038,324,95,-2054,649,-178,-65
890,18030048,230,77,-2005,705,-249,-39
891,18030058,352,67,-1950,804,-55,-92
892,18030068,415,-28,-1960,810,-9,-76
893,18030078,314,89,-2039,725,-179,-10
894,18030088,241,52,-2004,744,-229,-44
895,18030098,377,66,-1990,824,-47,-137
896,18030108,377,80,-1978,810,-38,-76
897,18030118,331,39,-1960,864,-63,-25
898,18030128,349,56,-1987,829,-53,-54
899,18030138,377,51,-1989,835,-75,-58
900,18030148,367,48,-1969,836,-69,-59
901,18030158,349,34,-1961,833,-70,-60
902,18030168,360,50,-1969,809,-91,-51
903,18030178,361,43,-2007,795,-117,-46
904,18030188,342,39,-1976,814,-80,-54
905,18030198,343,32,-1968,813,-69,-61
906,18030208,360,38,-1981,790,-84,-55
907,18030218,343,41,-1983,777,-103,-43
908,18030228,336,57,-1979,782,-103,-53
909,18030238,340,54,-1976,781,-101,-256
910,18030235,340,53,-1976,782,-101,-62
911,18030245,362,70,-1981,783,-110,-61
912,18030255,318,67,-2002,779,-120,-53
913,18030265,318,55,-1990,796,-96,-45
914,18030275,347,31,-1952,811,-68,-44
915,18030285,370,42,-1955,802,-62,-55
916,18030295,334,66,-1974,778,-87,-59
917,18030305,339,67,-1984,769,-105,-54
918,18030315,360,60,-1986,782,-93,-53
919,18030325,334,61,-1997,795,-82,-53
920,18030335,324,61,-1984,810,-65,-42
921,18030345,339,43,-1966,825,-57,-36
922,18030355,337,56,-1966,818,-62,-43
923,18030365,336,64,-1970,808,-76,-50
924,18030375,329,65,-1978,804,-80,-49
925,18030385,362,62,-1975,803,-84,-50
926,18030395,337,53,-1974,813,-82,-45
927,18030405,325,44,-1971,811,-89,-44
928,18030415,349,52,-1968,809,-82,-38
929,18030425,343,43,-1986,804,-82,-40
930,18030435,330,42,-1973,803,-80,-47
931,18030445,334,63,-1977,790,-85,-52
932,18030455,360,42,-1976,790,-87,-50
933,18030465,344,50,-1963,790,-83,-49
934,18030475,332,65,-1976,783,-98,-45
935,18030485,356,61,-1985,784,-100,-256
936,18030482,356,61,-1985,785,-101,-45
937,18030492,356,57,-1973,794,-88,-50
938,18030502,324,71,-1995,784,-98,-57
939,18030512,328,67,-2001,788,-98,-47
940,18030522,348,57,-1978,805,-86,-45
941,18030532,335,58,-1969,806,-82,-46
942,18030542,318,49,-1976,803,-92,-45
943,18030552,345,47,-1980,807,-87,-41
944,18030562,348,46,-1975,800,-85,-51
945,18030572,316,57,-1980,799,-85,-54
946,18030582,342,63,-1980,808,-73,-46
947,18030592,355,71,-1970,808,-75,-45
948,18030602,337,56,-1970,798,-82,-53
949,18030612,316,59,-1981,791,-94,-47
950,18030622,345,64,-1984,793,-96,-41
951,18030632,343,59,-1974,805,-79,-41
952,18030642,336,62,-1975,805,-82,-38
953,18030652,341,68,-1986,803,-78,-38
954,18030662,346,58,-1981,814,-71,-33
955,18030672,332,59,-1976,815,-66,-38
956,18030682,321,53,-1983,809,-70,-42
957,18030692,352,53,-1980,805,-78,-42
958,18030702,337,74,-1985,805,-76,-39
959,18030712,311,43,-1980,813,-74,-37
960,18030722,335,52,-1968,808,-82,-35
961,18030732,331,47,-1977,798,-93,-256
962,18030728,331,47,-1977,798,-93,-36
963,18030738,321,52,-1985,792,-94,-38
964,18030748,323,51,-1987,790,-78,-47
965,18030758,354,69,-1972,798,-71,-51
966,18030768,356,69,-1977,797,-79,-49
967,18030778,321,67,-1991,794,-84,-43
968,18030788,340,73,-1971,808,-78,-39
969,18030798,351,79,-1992,813,-72,-40
970,18030808,318,64,-1993,813,-73,-40
971,18030818,321,65,-1969,813,-73,-40
972,18030828,354,67,-1983,814,-68,-42
973,18030838,337,65,-1983,809,-75,-41
974,18030848,308,56,-1986,817,-66,-39
975,18030858,326,69,-1987,817,-70,-43
976,18030868,349,71,-1978,806,-76,-44
977,18030878,331,48,-1970,824,-70,-29
978,18030888,334,58,-1970,813,-84,-51
979,18030898,329,70,-1999,799,-96,-39
980,18030908,332,60,-1976,814,-79,-34
981,18030918,340,71,-1966,815,-67,-50
982,18030928,350,48,-1965,809,-74,-43
983,18030938,357,61,-1982,802,-83,-40
984,18030948,335,66,-1982,792,-87,-50
985,18030958,326,69,-1968,790,-86,-49
986,18030968,348,71,-1998,797,-91,-40
987,18030978,344,80,-1958,798,-93,-256
988,18030975,345,80,-1958,799,-93,-46
989,18030985,323,50,-1969,794,-121,-42
990,18030995,285,69,-2000,787,-168,-32
991,18031005,319,72,-2003,789,-110,-36
992,18031015,335,40,-1971,823,-61,-36
993,18031025,339,61,-1955,816,-64,-45
994,18031035,361,59,-1978,794,-83,-47
995,18031045,328,74,-1992,784,-93,-40
996,18031055,317,66,-1980,793,-81,-45
997,18031065,337,81,-1985,795,-81,-48
998,18031075,334,72,-1982,805,-82,-37
999,18031085,304,77,-1986,807,-79,-35
1000,18031095,314,68,-1970,812,-81,-38
1001,18031105,345,65,-1990,813,-84,-36
1002,18031115,330,67,-1975,819,-76,-33
1003,18031125,298,65,-1985,812,-83,-32
1004,18031135,325,63,-1989,817,-75,-32
1005,18031145,345,64,-1987,818,-72,-33
1006,18031155,313,64,-1989,819,-70,-34
1007,18031165,315,68,-1986,825,-60,-36
1008,18031175,362,74,-1988,828,-56,-30
1009,18031185,326,69,-1974,833,-55,-26
1010,18031195,322,46,-1960,825,-61,-32
1011,18031205,338,61,-1976,818,-67,-37
1012,18031215,339,66,-1994,813,-71,-36
1013,18031225,321,55,-1980,814,-65,-256
1014,18031222,322,55,-1980,815,-66,-33
1015,18031232,320,49,-1982,811,-70,-38
1016,18031242,337,66,-1978,798,-79,-43
1017,18031252,339,73,-1993,796,-78,-44
1018,18031262,310,73,-1983,801,-74,-46
1019,18031272,324,82,-1986,809,-68,-44
1020,18031282,344,70,-1978,823,-67,-37
1021,18031292,321,68,-1994,832,-66,-36
1022,18031302,324,67,-1980,832,-58,-34
1023,18031312,349,46,-1968,840,-52,-30
1024,18031322,335,59,-1972,827,-56,-40
1025,18031332,327,59,-1985,816,-67,-40
1026,18031342,330,69,-1972,813,-73,-37
1027,18031352,367,70,-1983,814,-70,-42
1028,18031362,342,65,-1975,817,-68,-38
1029,18031372,322,50,-1980,819,-68,-32
1030,18031382,356,61,-1981,813,-72,-36
1031,18031392,343,58,-1980,809,-78,-31
1032,18031402,312,62,-1981,804,-79,-36
1033,18031412,326,76,-1977,802,-77,-38
1034,18031422,359,69,-1977,805,-75,-38
1035,18031432,327,61,-1966,813,-75,-35
1036,18031442,331,68,-1984,809,-80,-34
1037,18031452,349,63,-1991,806,-81,-34
1038,18031462,334,71,-1978,808,-79,-32
1039,18031472,314,58,-1972,813,-75,-256
1040,18031468,315,58,-1972,814,-76,-37
1041,18031478,338,61,-1971,813,-72,-36
1042,18031488,337,67,-1993,813,-73,-35
1043,18031498,323,74,-1973,813,-74,-38
1044,18031508,340,65,-1961,814,-70,-40
1045,18031518,358,65,-1977,813,-75,-36
1046,18031528,349,64,-1971,804,-83,-32
1047,18031538,303,61,-1975,811,-71,-34
1048,18031548,330,59,-1977,815,-69,-34
1049,18031558,356,55,-1984,808,-69,-40
1050,18031568,324,67,-1981,810,-68,-39
1051,18031578,315,64,-1971,810,-68,-38
1052,18031588,351,52,-1978,812,-71,-38
1053,18031598,342,57,-1976,813,-73,-36
1054,18031608,316,66,-1968,814,-75,-34
1055,18031618,332,66,-1982,811,-73,-38
1056,18031628,352,65,-1972,806,-79,-40
1057,18031638,336,71,-1981,800,-81,-43
1058,18031648,325,74,-1976,811,-86,-32
1059,18031658,330,71,-1981,809,-82,-34
1060,18031668,339,68,-1973,816,-79,-30
1061,18031678,315,56,-1977,817,-80,-34
1062,18031688,343,76,-1982,809,-87,-36
1063,18031698,347,70,-1979,811,-80,-34
1064,18031708,338,50,-1981,813,-73,-33
1065,18031718,312,65,-1970,816,-66,-256
1066,18031715,313,65,-1970,816,-67,-39
1067,18031725,337,76,-1986,805,-77,-43
1068,18031735,323,76,-1997,808,-78,-35
1069,18031745,310,61,-1980,815,-72,-33
1070,18031755,341,49,-1978,819,-67,-37
1071,18031765,346,69,-1967,812,-74,-38
1072,18031775,327,66,-1995,815,-77,-35
1073,18031785,328,61,-1986,819,-57,-37
1074,18031795,359,65,-1966,826,-55,-36
1075,18031805,340,68,-1975,810,-71,-38
1076,18031815,318,66,-1985,804,-86,-35
1077,18031825,329,64,-1983,806,-81,-35
1078,18031835,343,71,-1975,806,-79,-39
1079,18031845,326,61,-1965,805,-80,-43
1080,18031855,324,58,-1988,801,-84,-42
1081,18031865,350,64,-1975,802,-84,-43
1082,18031875,340,61,-1967,805,-84,-42
1083,18031885,320,63,-1998,807,-85,-40
1084,18031895,341,58,-1991,813,-74,-38
1085,18031905,345,76,-1980,820,-68,-38
1086,18031915,345,66,-1977,819,-70,-34
1087,18031925,324,60,-1979,816,-73,-37
1088,18031935,340,60,-1987,815,-72,-34
1089,18031945,333,64,-1978,817,-74,-33
1090,18031955,318,59,-1972,820,-65,-34
1091,18031965,339,59,-1977,814,-68,-256
1092,18031962,339,59,-1977,814,-69,-35
1093,18031972,349,58,-1990,808,-75,-37
1094,18031982,336,57,-1983,803,-75,-41
1095,18031992,315,68,-1981,797,-81,-45
1096,18032002,349,75,-1982,800,-76,-41
1097,18032012,351,70,-1973,801,-75,-43
1098,18032022,305,72,-1996,801,-79,-44
1099,18032032,320,79,-1985,809,-77,-41
1100,18032042,356,45,-1981,820,-68,-36
1101,18032052,331,45,-1976,819,-71,-39
1102,18032062,327,54,-1976,816,-72,-39
1103,18032072,337,67,-1989,816,-79,-33
1104,18032082,346,57,-1985,812,-71,-39
1105,18032092,341,54,-1974,812,-70,-37
1106,18032102,327,58,-1976,809,-72,-35
1107,18032112,363,56,-1999,806,-74,-37
1108,18032122,330,57,-1985,804,-76,-36
1109,18032132,319,44,-1985,810,-71,-34
1110,18032142,358,66,-1975,811,-73,-37
1111,18032152,343,56,-1979,809,-77,-37
1112,18032162,331,60,-1984,810,-79,-35
1113,18032172,357,51,-1980,809,-77,-36
1114,18032182,348,65,-1977,812,-73,-35
1115,18032192,337,49,-1975,808,-76,-39
1116,18032202,331,76,-1972,799,-80,-44
1117,18032212,353,79,-1981,802,-83,-256
1118,18032208,353,79,-1981,803,-83,-37
1119,18032218,330,79,-1983,813,-79,-35
1120,18032228,326,66,-1984,822,-67,-32
1121,18032238,353,55,-1974,831,-61,-30
1122,18032248,358,61,-1972,823,-71,-34
1123,18032258,322,42,-1979,819,-73,-31
1124,18032268,323,55,-1975,807,-80,-32
1125,18032278,356,60,-1974,807,-72,-38
1126,18032288,359,53,-1978,806,-70,-44
1127,18032298,321,66,-1979,803,-76,-42
1128,18032308,336,64,-1995,802,-80,-42
1129,18032318,363,67,-2000,807,-75,-40
1130,18032328,319,50,-1967,815,-71,-35
1131,18032338,324,50,-1971,817,-65,-40
1132,18032348,343,64,-1969,807,-72,-37
1133,18032358,343,59,-1968,814,-72,-38
1134,18032368,329,66,-1975,805,-72,-44
1135,18032378,341,59,-1979,802,-81,-42
1136,18032388,353,78,-1985,801,-81,-42
1137,18032398,322,72,-1989,812,-77,-38
1138,18032408,332,54,-1969,821,-68,-33
1139,18032418,340,59,-1971,820,-72,-36
1140,18032428,327,53,-1993,810,-84,-37
1141,18032438,311,54,-1983,816,-77,-29
1142,18032448,343,58,-1982,813,-69,-40
1143,18032458,356,56,-1979,803,-78,-256
