sequence,timestamp_ms,accel_x,accel_y,accel_z,gyro_x,gyro_y,gyro_z
2262,18326011,801,-696,-791,627,6904,1460
2263,18326021,954,-669,-669,926,6086,1335
2264,18326031,967,-649,-672,1228,5241,1249
2265,18326041,939,-699,-664,1545,4826,1313
2266,18326051,1085,-995,-482,1858,4833,1383
2267,18326061,1100,-1153,-423,1892,4650,1402
2268,18326071,1122,-1207,-421,1703,4242,1275
2269,18326081,1088,-1205,-390,1543,3950,1096
2270,18326091,1203,-1227,-301,1430,3792,948
2271,18326101,1259,-1305,-147,1437,3578,819
2272,18326111,1191,-1270,-170,1264,3085,683
2273,18326121,1132,-1146,-223,950,2812,496
2274,18326131,1152,-1081,-191,832,2838,357
2275,18326141,1198,-1050,-85,919,2888,239
2276,18326151,1302,-1080,50,1032,2895,128
2277,18326161,1370,-1096,159,983,2797,46
2278,18326171,1417,-1060,213,801,2505,-24
2279,18326181,1445,-1000,245,673,2204,-77
2280,18326191,1431,-943,222,614,1869,-115
2281,18326201,1390,-842,179,587,1619,-126
2282,18326211,1452,-846,227,682,1536,-113
2283,18326221,1485,-865,285,775,1420,-82
2284,18326231,1443,-876,280,717,1239,-76
2285,18326241,1478,-844,295,650,1162,-113
2286,18326251,1549,-833,341,612,1068,-187
2287,18326261,1516,-778,355,613,870,-256
2288,18326258,1517,-779,356,614,870,-237
2289,18326268,1598,-741,394,618,770,-311
2290,18326278,1666,-698,401,583,602,-361
2291,18326288,1725,-649,422,496,387,-369
2292,18326298,1709,-613,418,479,192,-366
2293,18326308,1771,-582,455,489,72,-366
2294,18326318,1854,-587,466,482,-77,-343
2295,18326328,1791,-527,421,447,-302,-303
2296,18326338,1780,-437,360,397,-424,-287
2297,18326348,1894,-469,419,618,-356,-229
2298,18326358,1917,-552,491,859,-451,-121
2299,18326368,1876,-535,502,946,-607,-97
2300,18326378,1918,-617,475,992,-771,-97
2301,18326388,1946,-645,419,917,-1010,-67
2302,18326398,1938,-639,358,736,-1270,-51
2303,18326408,1903,-659,287,582,-1514,-66
2304,18326418,1930,-623,207,424,-1710,-112
2305,18326428,1913,-560,48,310,-1905,-175
2306,18326438,1849,-491,-101,317,-1992,-194
2307,18326448,1854,-455,-179,472,-1904,-161
2308,18326458,1907,-464,-159,754,-1765,-71
2309,18326468,1869,-530,-150,1045,-1751,25
2310,18326478,1783,-550,-243,1158,-1753,101
2311,18326488,1789,-594,-262,1142,-1605,137
2312,18326498,1808,-642,-246,1159,-1526,152
2313,18326508,1803,-670,-223,1102,-1558,0
2314,18326505,1804,-671,-223,1103,-1558,130
2315,18326515,1803,-683,-196,1010,-1681,115
2316,18326525,1803,-654,-151,898,-1876,95
2317,18326535,1820,-689,-25,865,-2124,55
2318,18326545,1827,-762,55,815,-2490,34
2319,18326555,1816,-769,55,608,-2984,-4
2320,18326565,1804,-731,35,362,-3481,-78
2321,18326575,1648,-683,-102,168,-3919,-164
2322,18326585,1529,-496,-295,39,-4074,-204
2323,18326595,1607,-470,-314,269,-3836,-126
2324,18326605,1637,-535,-235,671,-3650,46
2325,18326615,1644,-611,-155,917,-3660,178
2326,18326625,1692,-567,-88,963,-3849,157
2327,18326635,1631,-394,-186,880,-4182,62
2328,18326645,1506,-219,-440,820,-4384,12
2329,18326655,1372,-147,-652,904,-4197,134
2330,18326665,1274,-90,-818,1047,-3761,256
2331,18326675,1225,-77,-1015,1036,-3247,303
2332,18326685,1104,-110,-1157,782,-2762,466
2333,18326695,1075,-226,-1127,617,-2253,711
2334,18326705,1079,-376,-1099,502,-1836,875
2335,18326715,1080,-549,-1143,556,-1673,932
2336,18326725,1021,-786,-1243,647,-1828,871
2337,18326735,1014,-848,-1320,574,-2137,701
2338,18326745,1000,-758,-1469,353,-2526,290
2339,18326755,942,-521,-1834,60,-2997,-256
2340,18326751,942,-522,-1834,60,-2997,-139
2341,18326761,749,-288,-2223,-45,-3279,-396
2342,18326771,516,-200,-2404,71,-2795,-324
2343,18326781,556,-261,-2269,370,-1667,-152
2344,18326791,761,-372,-1993,547,-818,-1
2345,18326801,807,-519,-1842,534,-700,293
2346,18326811,737,-632,-1929,400,-1005,680
2347,18326821,621,-694,-2116,389,-1366,980
2348,18326831,508,-843,-2315,699,-1629,1106
2349,18326841,402,-986,-2486,1023,-1733,1028
2350,18326851,283,-1017,-2552,1240,-1664,839
2351,18326861,255,-1042,-2504,1451,-1417,550
2352,18326871,282,-1088,-2461,1598,-1182,335
2353,18326881,269,-1151,-2397,1550,-972,263
2354,18326891,273,-1207,-2288,1399,-798,256
2355,18326901,303,-1188,-2253,1164,-676,221
2356,18326911,349,-1146,-2203,919,-607,182
2357,18326921,359,-1018,-2150,699,-559,139
2358,18326931,390,-943,-2138,582,-533,114
2359,18326941,376,-885,-2151,564,-584,128
2360,18326951,310,-923,-2198,662,-625,193
2361,18326961,272,-937,-2236,821,-595,237
2362,18326971,254,-1012,-2216,974,-565,245
2363,18326981,200,-1047,-2163,1025,-477,228
2364,18326991,223,-1078,-2074,1027,-273,183
2365,18327001,236,-1119,-2007,902,-166,0
2366,18326998,237,-1120,-2007,903,-166,119
2367,18327008,269,-1061,-1978,703,-167,54
2368,18327018,322,-955,-1968,517,-149,-44
2369,18327028,337,-924,-1938,459,-111,-109
2370,18327038,360,-877,-1937,456,-94,-128
2371,18327048,365,-843,-1948,478,-107,-121
2372,18327058,363,-779,-1910,521,-122,-146
2373,18327068,370,-725,-1897,544,-140,-174
2374,18327078,434,-685,-1863,589,-144,-166
2375,18327088,440,-649,-1869,594,-148,-150
2376,18327098,396,-631,-1874,649,-128,-81
2377,18327108,396,-673,-1847,740,-26,-36
2378,18327118,440,-693,-1757,754,72,-27
2379,18327128,442,-694,-1727,680,104,-34
2380,18327138,447,-703,-1720,585,96,-36
2381,18327148,464,-735,-1696,526,53,-41
2382,18327158,456,-789,-1608,511,46,-83
2383,18327168,493,-762,-1479,431,107,-233
2384,18327178,544,-658,-1400,229,61,-385
2385,18327188,619,-411,-1283,71,-121,-453
2386,18327198,693,-246,-1122,51,-529,-326
2387,18327208,479,69,-1110,303,-1321,436
2388,18327218,301,-1611,-2148,1313,-1916,968
2389,18327228,-1927,-785,-3352,-2877,-2872,2127
2390,18327238,297,-303,-2828,-1838,-1041,-455
2391,18327248,770,-78,-2309,-787,253,-1281
2392,18327245,771,-78,-2309,-787,253,-1121
2393,18327255,354,-456,-2240,-9,-318,-96
2394,18327265,109,-290,-2246,264,-604,306
2395,18327275,353,-248,-2135,606,-188,-24
2396,18327285,275,-307,-1983,953,-27,108
2397,18327295,523,-1445,-2371,1249,26,284
2398,18327305,-164,-270,-2002,749,-206,521
2399,18327315,485,-796,-1857,1850,588,-373
2400,18327325,-40,-826,-2221,1066,-150,207
2401,18327335,-241,-768,-2523,809,-180,146
2402,18327345,-233,-653,-2395,470,123,-155
2403,18327355,-58,-673,-2283,650,570,-452
2404,18327365,-160,-702,-2190,665,527,-338
2405,18327375,-198,-627,-2137,573,521,-316
2406,18327385,-35,-572,-2056,532,657,-453
2407,18327395,57,-529,-1943,727,722,-502
2408,18327405,81,-526,-1827,982,713,-491
2409,18327415,127,-556,-1756,1241,691,-474
2410,18327425,135,-575,-1711,1471,552,-436
2411,18327435,108,-562,-1720,1637,377,-424
2412,18327445,68,-534,-1752,1753,191,-452
2413,18327455,128,-480,-1759,1856,20,-499
2414,18327465,220,-487,-1763,1953,-74,-556
2415,18327475,262,-527,-1751,2001,28,-495
2416,18327485,299,-595,-1695,2012,211,-333
2417,18327495,363,-712,-1652,2018,342,-256
2418,18327491,364,-713,-1652,2018,342,-203
2419,18327501,320,-779,-1649,1963,315,-116
2420,18327511,295,-815,-1666,1906,196,-142
2421,18327521,294,-740,-1685,1844,94,-217
2422,18327531,341,-715,-1670,1825,29,-311
2423,18327541,387,-670,-1641,1844,7,-390
2424,18327551,504,-646,-1631,1796,6,-438
2425,18327561,581,-698,-1625,1784,-8,-373
2426,18327571,625,-749,-1626,1763,-1,-257
2427,18327581,623,-821,-1625,1730,-15,-182
2428,18327591,621,-840,-1628,1696,-40,-161
2429,18327601,664,-835,-1623,1614,-85,-212
2430,18327611,725,-804,-1589,1516,-117,-280
2431,18327621,800,-772,-1535,1449,-158,-336
2432,18327631,869,-764,-1548,1368,-188,-352
2433,18327641,855,-820,-1604,1281,-233,-247
2434,18327651,812,-868,-1686,1213,-301,-145
2435,18327661,861,-850,-1726,1135,-338,-181
2436,18327671,890,-817,-1785,1083,-316,-231
2437,18327681,891,-839,-1768,1120,-153,-163
2438,18327691,941,-888,-1742,1149,43,-83
2439,18327701,1049,-915,-1697,1086,148,-67
2440,18327711,1112,-959,-1666,1005,147,-76
2441,18327721,1095,-967,-1714,898,66,-40
2442,18327731,1081,-961,-1765,778,-56,-37
2443,18327741,1040,-940,-1857,684,-141,-256
2444,18327738,1041,-940,-1857,685,-141,-66
2445,18327748,933,-932,-1916,673,-143,-34
2446,18327758,879,-972,-1917,770,-69,-4
2447,18327768,871,-999,-1870,833,6,-23
2448,18327778,807,-985,-1859,835,41,-20
2449,18327788,734,-997,-1815,867,91,-16
2450,18327798,735,-972,-1759,883,170,-19
2451,18327808,739,-968,-1727,897,200,-9
2452,18327818,682,-992,-1691,916,189,49
2453,18327828,617,-1005,-1688,911,177,81
2454,18327838,600,-1011,-1689,884,162,59
2455,18327848,589,-1023,-1674,878,152,25
2456,18327858,531,-1030,-1638,884,156,41
2457,18327868,537,-1076,-1606,923,199,55
2458,18327878,546,-1106,-1549,961,253,45
2459,18327888,556,-1127,-1485,965,281,-22
2460,18327898,585,-1101,-1431,930,305,-54
2461,18327908,619,-1105,-1376,935,309,-45
2462,18327918,635,-1113,-1335,954,279,-54
2463,18327928,651,-1101,-1301,932,222,-111
2464,18327938,696,-1103,-1315,881,131,-138
2465,18327948,674,-1116,-1382,849,22,-133
2466,18327958,617,-1075,-1460,806,-80,-195
2467,18327968,653,-1007,-1515,770,-57,-306
2468,18327978,688,-990,-1513,785,-6,-288
2469,18327988,680,-1009,-1519,816,20,-256
2470,18327985,680,-1009,-1519,817,20,-229
2471,18327995,693,-992,-1537,795,8,-227
2472,18328005,684,-982,-1549,767,-43,-220
2473,18328015,708,-946,-1570,736,-76,-183
2474,18328025,686,-935,-1570,736,-92,-165
2475,18328035,667,-944,-1577,747,-111,-139
2476,18328045,684,-936,-1593,744,-124,-129
2477,18328055,674,-953,-1599,753,-101,-100
2478,18328065,679,-973,-1592,761,-82,-91
2479,18328075,673,-967,-1644,719,-103,-97
2480,18328085,671,-932,-1667,684,-135,-109
2481,18328095,642,-935,-1670,719,-111,-87
2482,18328105,649,-943,-1646,747,-53,-81
2483,18328115,699,-928,-1638,769,-32,-88
2484,18328125,696,-949,-1594,799,-18,-60
2485,18328135,636,-972,-1573,835,-53,-11
2486,18328145,674,-999,-1589,814,-49,-26
2487,18328155,672,-1023,-1591,774,-62,-6
2488,18328165,648,-1013,-1595,751,-89,2
2489,18328175,641,-1029,-1616,736,-109,-1
2490,18328185,647,-1023,-1641,727,-134,-1
2491,18328195,619,-1042,-1640,722,-154,1
2492,18328205,599,-1035,-1647,718,-132,-33
2493,18328215,618,-1037,-1645,731,-110,-45
2494,18328225,642,-1053,-1623,759,-83,-41
2495,18328235,640,-1080,-1599,755,-72,-256
2496,18328231,641,-1081,-1599,755,-72,-59
2497,18328241,631,-1058,-1615,720,-93,-72
2498,18328251,641,-1045,-1629,724,-105,-69
2499,18328261,640,-1042,-1639,759,-86,-78
2500,18328271,624,-1042,-1634,762,-82,-83
2501,18328281,631,-1066,-1627,783,-86,-80
2502,18328291,643,-1046,-1640,772,-83,-100
2503,18328301,633,-1027,-1645,759,-81,-123
2504,18328311,627,-1035,-1601,806,-75,-93
2505,18328321,665,-1017,-1607,823,-59,-97
2506,18328331,657,-1018,-1571,815,-66,-108
2507,18328341,650,-1003,-1590,794,-92,-112
2508,18328351,671,-1017,-1577,761,-99,-119
2509,18328361,699,-994,-1607,728,-111,-123
2510,18328371,640,-976,-1606,740,-142,-98
2511,18328381,648,-977,-1614,755,-144,-88
2512,18328391,660,-980,-1626,747,-139,-86
2513,18328401,641,-1008,-1642,729,-166,-72
2514,18328411,600,-1000,-1672,724,-181,-71
2515,18328421,614,-995,-1668,728,-153,-90
2516,18328431,659,-987,-1687,733,-107,-115
2517,18328441,629,-987,-1661,728,-106,-94
2518,18328451,628,-996,-1659,734,-97,-75
2519,18328461,630,-979,-1667,729,-106,-67
2520,18328471,638,-971,-1700,719,-112,-73
2521,18328481,598,-992,-1672,752,-91,-256
2522,18328478,599,-992,-1672,752,-91,-40
2523,18328488,616,-1032,-1664,784,-56,-26
2524,18328498,613,-1047,-1657,768,-44,-36
2525,18328508,606,-1026,-1657,734,-48,-44
2526,18328518,610,-1039,-1634,746,-45,-35
2527,18328528,648,-1016,-1607,754,-29,-49
2528,18328538,654,-1019,-1588,742,-27,-75
2529,18328548,624,-1008,-1584,723,-45,-73
2530,18328558,644,-994,-1587,724,-61,-72
2531,18328568,665,-989,-1589,723,-63,-82
2532,18328578,663,-956,-1572,732,-44,-84
2533,18328588,664,-960,-1561,744,-47,-75
2534,18328598,692,-921,-1548,744,-68,-77
2535,18328608,693,-919,-1541,729,-94,-77
2536,18328618,653,-926,-1560,712,-117,-72
2537,18328628,653,-919,-1613,690,-129,-70
2538,18328638,656,-931,-1647,709,-108,-44
2539,18328648,611,-985,-1622,779,-77,23
2540,18328658,631,-996,-1619,772,-50,18
2541,18328668,648,-994,-1646,737,-69,16
2542,18328678,618,-1017,-1656,722,-88,25
2543,18328688,602,-1030,-1662,709,-90,19
2544,18328698,607,-1049,-1663,730,-98,24
2545,18328708,605,-1046,-1678,746,-104,16
2546,18328718,615,-1037,-1663,741,-88,-18
2547,18328728,623,-1037,-1674,761,-79,-256
2548,18328725,624,-1038,-1674,761,-80,-18
2549,18328735,641,-1038,-1656,783,-76,-12
2550,18328745,636,-1048,-1654,776,-70,-22
2551,18328755,612,-1047,-1649,747,-81,-26
2552,18328765,632,-1044,-1657,724,-86,-29
2553,18328775,631,-1016,-1675,700,-62,-54
2554,18328785,619,-1018,-1664,725,-18,-47
2555,18328795,617,-1025,-1656,744,-5,-39
2556,18328805,648,-1006,-1634,736,-8,-69
2557,18328815,640,-1001,-1633,729,-13,-76
2558,18328825,612,-1019,-1626,735,-20,-70
2559,18328835,647,-1013,-1632,734,-23,-72
2560,18328845,653,-997,-1632,734,-34,-83
2561,18328855,627,-1017,-1629,750,-55,-69
2562,18328865,606,-1012,-1620,749,-80,-52
2563,18328875,648,-991,-1637,747,-72,-70
2564,18328885,627,-990,-1630,763,-79,-51
2565,18328895,605,-961,-1650,766,-67,-55
2566,18328905,627,-966,-1649,795,-30,-46
2567,18328915,639,-986,-1635,803,-22,-43
2568,18328925,628,-963,-1627,774,-34,-49
2569,18328935,625,-972,-1636,756,-41,-45
2570,18328945,627,-982,-1622,742,-46,-45
2571,18328955,636,-965,-1616,734,-50,-43
2572,18328965,615,-1000,-1630,727,-60,-47
2573,18328975,615,-976,-1644,725,-65,-256
2574,18328971,616,-976,-1644,725,-65,-48
2575,18328981,644,-974,-1647,722,-34,-54
2576,18328991,631,-999,-1655,730,-24,-51
2577,18329001,621,-983,-1636,739,-45,-39
2578,18329011,653,-987,-1635,735,-59,-39
2579,18329021,628,-991,-1645,738,-74,-25
2580,18329031,617,-986,-1655,729,-82,-24
2581,18329041,629,-990,-1655,733,-74,-34
2582,18329051,651,-997,-1645,746,-51,-36
2583,18329061,630,-1009,-1634,763,-25,-22
2584,18329071,627,-1010,-1621,769,-30,-21
2585,18329081,653,-997,-1644,761,-15,-27
2586,18329091,653,-998,-1633,762,-29,-26
2587,18329101,630,-1012,-1641,751,-42,-35
2588,18329111,649,-998,-1640,739,-40,-46
2589,18329121,647,-998,-1647,757,-44,-31
2590,18329131,629,-1023,-1638,769,-45,-22
2591,18329141,637,-998,-1649,747,-31,-49
2592,18329151,650,-1013,-1628,753,-20,-38
2593,18329161,652,-1008,-1620,759,1,-32
2594,18329171,635,-1015,-1626,747,-16,-37
2595,18329181,640,-1004,-1633,737,-38,-55
2596,18329191,652,-996,-1640,734,-43,-67
2597,18329201,650,-992,-1636,744,-34,-69
2598,18329211,634,-1006,-1617,761,-20,-56
2599,18329221,670,-989,-1616,754,-26,-256
2600,18329218,670,-989,-1616,755,-26,-68
2601,18329228,664,-977,-1616,726,-45,-77
2602,18329238,629,-993,-1652,724,-66,-60
2603,18329248,645,-981,-1651,717,-48,-56
2604,18329258,662,-984,-1649,730,-30,-54
2605,18329268,645,-984,-1640,733,-28,-51
2606,18329278,646,-991,-1631,728,-37,-58
2607,18329288,657,-987,-1638,726,-42,-58
2608,18329298,664,-988,-1633,731,-39,-64
2609,18329308,627,-987,-1639,739,-50,-50
2610,18329318,647,-998,-1642,746,-72,-43
2611,18329328,669,-990,-1647,734,-63,-59
2612,18329338,642,-1001,-1641,747,-61,-53
2613,18329348,644,-1033,-1644,757,-56,-47
2614,18329358,648,-1006,-1653,746,-58,-50
2615,18329368,649,-993,-1659,733,-53,-64
2616,18329378,629,-1013,-1666,749,-21,-70
2617,18329388,667,-1011,-1644,765,-2,-69
2618,18329398,674,-1011,-1639,753,-12,-74
2619,18329408,651,-994,-1640,726,-29,-77
2620,18329418,639,-994,-1642,722,-44,-79
2621,18329428,676,-978,-1640,725,-47,-79
2622,18329438,661,-990,-1642,725,-37,-82
2623,18329448,626,-993,-1633,726,-42,-67
2624,18329458,669,-975,-1619,709,-45,-78
2625,18329468,654,-971,-1613,690,-61,-256
2626,18329465,655,-971,-1613,691,-62,-82
2627,18329475,655,-964,-1623,693,-74,-84
2628,18329485,640,-961,-1661,715,-70,-72
2629,18329495,654,-941,-1662,755,-37,-60
2630,18329505,674,-964,-1631,793,30,-62
2631,18329515,657,-979,-1612,803,25,-53
2632,18329525,668,-967,-1622,784,-6,-52
2633,18329535,676,-970,-1628,740,-12,-61
2634,18329545,641,-987,-1643,723,-28,-41
2635,18329555,638,-968,-1645,711,-35,-53
2636,18329565,673,-978,-1639,711,-24,-70
2637,18329575,661,-990,-1651,730,-21,-68
2638,18329585,639,-976,-1651,731,-21,-73
2639,18329595,651,-1001,-1643,755,-2,-63
2640,18329605,690,-988,-1624,767,25,-72
2641,18329615,669,-974,-1615,762,13,-68
2642,18329625,667,-977,-1615,768,-12,-54
2643,18329635,688,-974,-1602,751,-16,-64
2644,18329645,676,-980,-1627,744,-30,-58
2645,18329655,654,-969,-1623,747,-40,-56
2646,18329665,679,-963,-1615,734,-43,-72
2647,18329675,679,-981,-1626,720,-54,-68
2648,18329685,675,-962,-1643,709,-55,-74
2649,18329695,653,-949,-1650,707,-50,-71
2650,18329705,693,-965,-1635,745,-10,-52
2651,18329715,680,-964,-1632,757,-19,-256
2652,18329712,681,-964,-1632,758,-19,-51
2653,18329722,655,-964,-1645,751,-47,-62
2654,18329732,673,-972,-1656,744,-45,-73
2655,18329742,690,-953,-1633,752,-44,-57
2656,18329752,667,-963,-1647,748,-36,-61
2657,18329762,673,-945,-1634,735,-35,-64
2658,18329772,687,-956,-1614,735,-32,-67
2659,18329782,685,-972,-1613,724,-29,-66
2660,18329792,678,-944,-1618,724,-29,-66
2661,18329802,673,-948,-1625,721,-37,-69
2662,18329812,691,-938,-1627,725,-32,-59
2663,18329822,663,-957,-1617,740,-21,-41
2664,18329832,688,-966,-1612,738,-23,-40
2665,18329842,692,-957,-1615,741,-40,-22
2666,18329852,696,-962,-1612,760,-26,-17
2667,18329862,679,-981,-1598,761,-29,-22
2668,18329872,690,-976,-1620,759,-56,-22
2669,18329882,699,-979,-1634,743,-80,-38
2670,18329892,677,-964,-1642,737,-90,-44
2671,18329902,676,-966,-1640,733,-73,-47
2672,18329912,686,-960,-1633,735,-61,-49
2673,18329922,684,-972,-1659,727,-54,-55
2674,18329932,674,-968,-1620,727,-39,-54
2675,18329942,693,-972,-1627,728,-32,-63
2676,18329952,713,-952,-1634,717,-43,-68
2677,18329962,676,-963,-1645,719,-58,-256
2678,18329958,676,-964,-1645,720,-59,-65
2679,18329968,665,-958,-1642,743,-58,-48
2680,18329978,711,-963,-1648,765,-15,-49
2681,18329988,689,-966,-1640,764,-29,-49
2682,18329998,675,-953,-1664,736,-49,-62
2683,18330008,683,-953,-1679,727,-54,-55
2684,18330018,702,-966,-1662,751,-49,-39
2685,18330028,669,-967,-1676,743,-34,-46
2686,18330038,681,-960,-1662,752,-21,-39
2687,18330048,687,-957,-1653,754,-13,-47
2688,18330058,687,-954,-1647,739,-20,-55
2689,18330068,675,-948,-1648,737,-25,-54
2690,18330078,676,-972,-1658,732,-17,-53
2691,18330088,677,-952,-1659,730,-10,-50
2692,18330098,686,-944,-1645,738,13,-54
2693,18330108,677,-951,-1620,764,32,-36
2694,18330118,713,-949,-1601,763,27,-35
2695,18330128,698,-953,-1591,772,8,-17
2696,18330138,701,-953,-1595,762,7,-37
2697,18330148,699,-948,-1579,749,-9,-37
2698,18330158,704,-948,-1609,742,-26,-39
2699,18330168,694,-954,-1611,730,-28,-51
2700,18330178,682,-960,-1605,726,-26,-47
2701,18330188,706,-961,-1613,718,-21,-44
2702,18330198,694,-968,-1625,730,-28,-30
2703,18330208,689,-956,-1620,715,-21,-256
