sequence,timestamp_ms,accel_x,accel_y,accel_z,gyro_x,gyro_y,gyro_z
2574,18967399,-543,-1235,-1554,931,-198,-230
2575,18967409,-509,-1192,-1545,912,-178,-234
2576,18967419,-461,-1155,-1537,936,-145,-249
2577,18967429,-495,-1196,-1521,1013,-147,-224
2578,18967439,-500,-1192,-1528,1040,-157,-188
2579,18967449,-475,-1208,-1528,1071,-171,-174
2580,18967459,-483,-1216,-1530,1087,-174,-170
2581,18967469,-516,-1207,-1535,1087,-168,-171
2582,18967479,-487,-1200,-1537,1103,-170,-170
2583,18967489,-461,-1197,-1535,1114,-194,-143
2584,18967499,-482,-1204,-1531,1105,-219,-120
2585,18967509,-492,-1215,-1506,1111,-242,-112
2586,18967519,-454,-1227,-1513,1117,-245,-90
2587,18967529,-461,-1223,-1511,1101,-252,-63
2588,18967539,-491,-1220,-1507,1084,-269,-77
2589,18967549,-482,-1231,-1512,1067,-275,-83
2590,18967559,-471,-1230,-1517,1065,-272,-72
2591,18967569,-471,-1227,-1524,1052,-269,-82
2592,18967579,-511,-1235,-1533,1027,-272,-91
2593,18967589,-459,-1230,-1536,1028,-268,-96
2594,18967599,-466,-1219,-1555,1038,-257,-98
2595,18967609,-497,-1229,-1548,1072,-249,-88
2596,18967619,-487,-1204,-1548,1085,-242,-105
2597,18967629,-451,-1211,-1553,1104,-235,-117
2598,18967639,-472,-1206,-1544,1127,-235,-88
2599,18967649,-501,-1233,-1536,1112,-247,-256
2600,18967646,-501,-1234,-1536,1113,-248,-72
2601,18967656,-472,-1224,-1537,1094,-261,-63
2602,18967666,-451,-1236,-1542,1081,-259,-80
2603,18967676,-479,-1226,-1521,1070,-257,-83
2604,18967686,-483,-1237,-1528,1062,-262,-83
2605,18967696,-452,-1228,-1542,1045,-277,-99
2606,18967706,-472,-1221,-1554,1038,-287,-105
2607,18967716,-488,-1217,-1553,1037,-276,-100
2608,18967726,-448,-1221,-1540,1059,-265,-94
2609,18967736,-449,-1214,-1540,1058,-267,-99
2610,18967746,-473,-1209,-1525,1064,-276,-93
2611,18967756,-471,-1221,-1528,1084,-286,-67
2612,18967766,-459,-1216,-1530,1086,-288,-55
2613,18967776,-469,-1221,-1527,1097,-272,-59
2614,18967786,-482,-1245,-1511,1099,-268,-69
2615,18967796,-473,-1252,-1493,1098,-267,-69
2616,18967806,-481,-1215,-1499,1051,-280,-66
2617,18967816,-489,-1243,-1508,1066,-294,-52
2618,18967826,-485,-1230,-1511,1061,-302,-24
2619,18967836,-445,-1242,-1498,1077,-301,-16
2620,18967846,-495,-1209,-1504,1082,-309,-13
2621,18967856,-474,-1221,-1486,1099,-323,-3
2622,18967866,-455,-1232,-1490,1138,-344,50
2623,18967876,-473,-1237,-1485,1084,-362,81
2624,18967886,-536,-1274,-1502,1055,-368,70
2625,18967896,-514,-1253,-1513,1032,-369,0
2626,18967892,-514,-1254,-1513,1033,-370,82
2627,18967902,-483,-1232,-1519,1020,-384,54
2628,18967912,-534,-1256,-1547,1032,-410,66
2629,18967922,-670,-1243,-1546,996,-392,75
2630,18967932,-468,-1365,-1539,922,-378,90
2631,18967942,-605,-1260,-1568,861,-267,148
2632,18967952,-1213,-746,-1646,720,-223,197
2633,18967962,-506,-1100,-1316,1944,-472,324
2634,18967972,-509,-1205,-1550,525,-514,42
2635,18967982,-528,-1221,-1533,1199,-350,120
2636,18967992,-508,-1187,-1508,922,-398,35
2637,18968002,-446,-1132,-1464,1023,-365,-24
2638,18968012,-390,-1120,-1434,1055,-370,-78
2639,18968022,-411,-1072,-1453,968,-364,-120
2640,18968032,-407,-1106,-1492,894,-322,-120
2641,18968042,-441,-1094,-1548,746,-244,-107
2642,18968052,-544,-1151,-1558,710,-218,-51
2643,18968062,-582,-1171,-1601,657,-197,-51
2644,18968072,-580,-1159,-1632,689,-173,-56
2645,18968082,-525,-1149,-1611,776,-149,-85
2646,18968092,-556,-1130,-1609,810,-141,-120
2647,18968102,-510,-1116,-1597,846,-166,-114
2648,18968112,-490,-1112,-1585,871,-205,-86
2649,18968122,-524,-1131,-1593,878,-253,-88
2650,18968132,-600,-1099,-1591,877,-260,-84
2651,18968142,-503,-1137,-1569,956,-239,-256
2652,18968139,-502,-1137,-1569,957,-239,-95
2653,18968149,-509,-1168,-1567,941,-212,-30
2654,18968159,-499,-1176,-1537,898,-232,55
2655,18968169,-570,-1177,-1564,881,-256,70
2656,18968179,-611,-767,-1504,782,-280,79
2657,18968189,-488,-1120,-1477,1141,-366,62
2658,18968199,-583,-1237,-1653,686,-244,-35
2659,18968209,-519,-1061,-1567,982,-121,-52
2660,18968219,-444,-1143,-1540,875,-209,-61
2661,18968229,-520,-1099,-1574,781,-172,-71
2662,18968239,-489,-1105,-1593,775,-156,-70
2663,18968249,-479,-1114,-1602,775,-136,-65
2664,18968259,-504,-1105,-1641,736,-146,-50
2665,18968269,-498,-1086,-1656,733,-138,-68
2666,18968279,-469,-1066,-1658,778,-128,-97
2667,18968289,-457,-1067,-1668,806,-124,-121
2668,18968299,-497,-1074,-1691,818,-127,-142
2669,18968309,-489,-1046,-1690,858,-127,-181
2670,18968319,-435,-1052,-1673,922,-123,-218
2671,18968329,-488,-1075,-1672,922,-142,-159
2672,18968339,-509,-1103,-1673,909,-129,-162
2673,18968349,-474,-1098,-1693,854,-102,-205
2674,18968359,-457,-1076,-1677,787,-55,-254
2675,18968369,-483,-1054,-1658,747,-30,-278
2676,18968379,-464,-1033,-1666,698,-28,-289
2677,18968389,-449,-1034,-1678,679,-20,-512
2678,18968386,-449,-1034,-1678,680,-21,-312
2679,18968396,-472,-1042,-1707,692,15,-374
2680,18968406,-493,-1059,-1748,696,103,-466
2681,18968416,-435,-1016,-1736,720,249,-577
2682,18968426,-394,-1014,-1710,835,403,-656
2683,18968436,-402,-992,-1678,934,446,-657
2684,18968446,-368,-1004,-1660,1062,363,-612
2685,18968456,-297,-992,-1640,1114,234,-555
2686,18968466,-315,-985,-1663,1109,112,-433
2687,18968476,-344,-1021,-1665,1154,33,-308
2688,18968486,-325,-1040,-1662,1207,5,-238
2689,18968496,-305,-1059,-1657,1232,-9,-229
2690,18968506,-328,-1061,-1675,1216,-28,-229
2691,18968516,-322,-1052,-1700,1196,-31,-255
2692,18968526,-265,-1073,-1699,1196,-33,-267
2693,18968536,-295,-1055,-1708,1177,-36,-276
2694,18968546,-304,-1076,-1739,1159,-20,-277
2695,18968556,-267,-1048,-1709,1148,59,-278
2696,18968566,-224,-1075,-1680,1184,131,-284
2697,18968576,-250,-1061,-1664,1208,134,-271
2698,18968586,-252,-1082,-1656,1217,96,-265
2699,18968596,-231,-1072,-1696,1227,43,-254
2700,18968606,-293,-1112,-1829,1227,29,-243
2701,18968616,-291,-1123,-1797,1316,269,-359
2702,18968626,-205,-1108,-1715,1485,539,-470
2703,18968636,-197,-1380,-1676,1572,628,-768
2704,18968632,-197,-1381,-1676,1572,628,-552
2705,18968642,-245,-1032,-1578,1479,637,-557
2706,18968652,-53,-988,-1624,1103,452,-703
2707,18968662,-25,-975,-1596,1328,363,-535
2708,18968672,-42,-1081,-1563,1582,209,-153
2709,18968682,-60,-1131,-1534,1590,58,13
2710,18968692,-32,-1120,-1535,1442,-80,31
2711,18968702,-40,-1101,-1532,1312,-213,42
2712,18968712,-70,-1128,-1546,1217,-355,99
2713,18968722,-108,-1149,-1592,1153,-485,180
2714,18968732,-113,-1188,-1611,1124,-575,223
2715,18968742,-178,-1209,-1657,1065,-632,249
2716,18968752,-195,-1190,-1672,1011,-700,274
2717,18968762,-191,-1261,-1716,1007,-741,262
2718,18968772,-210,-1121,-1738,893,-704,202
2719,18968782,-200,-1117,-1727,929,-676,125
2720,18968792,-192,-1140,-1686,1160,-596,157
2721,18968802,-174,-1150,-1657,1214,-559,171
2722,18968812,-216,-1185,-1664,1205,-542,154
2723,18968822,-242,-1182,-1671,1146,-498,116
2724,18968832,-236,-1161,-1700,1129,-391,29
2725,18968842,-228,-1150,-1696,1160,-211,-97
2726,18968852,-226,-1159,-1644,1244,-36,-203
2727,18968862,-202,-1212,-1608,1285,26,-238
2728,18968872,-169,-1168,-1570,1162,-34,-241
2729,18968882,-198,-1185,-1655,1034,-110,-512
2730,18968879,-197,-1186,-1655,1035,-110,-263
2731,18968889,-201,-1171,-1679,949,-103,-289
2732,18968899,-179,-1153,-1658,959,-15,-346
2733,18968909,-174,-1223,-1690,985,50,-368
2734,18968919,-200,-1157,-1685,915,106,-355
2735,18968929,-256,-1336,-1726,957,165,-383
2736,18968939,-170,-1115,-1659,1020,303,-486
2737,18968949,-135,-1133,-1771,510,317,-658
2738,18968959,-88,-1107,-1723,760,477,-698
2739,18968969,-36,-1107,-1673,961,475,-563
2740,18968979,-10,-963,-1621,1046,444,-513
2741,18968989,85,-819,-1409,1384,264,-331
2742,18968999,291,-627,-1145,1964,-100,111
2743,18969009,303,-579,-837,2872,-808,1051
2744,18969019,304,-891,-759,3517,-1726,1891
2745,18969029,-247,-3585,-2022,3299,-2556,2066
2746,18969039,-932,-644,-2073,-1065,-2311,2046
2747,18969049,-113,-2513,-2190,414,-1670,150
2748,18969059,-766,-1142,-1874,608,-1372,1192
2749,18969069,-369,-1326,-1739,364,-1031,178
2750,18969079,-333,-1200,-1740,785,-745,54
2751,18969089,-421,-1189,-1751,853,-523,-35
2752,18969099,-381,-1216,-1631,1010,-362,-146
2753,18969109,-325,-1240,-1601,1001,-166,-350
2754,18969119,-294,-1245,-1573,939,-20,-467
2755,18969129,-312,-1202,-1579,664,122,-768
2756,18969126,-312,-1203,-1579,665,121,-583
2757,18969136,-324,-1207,-1623,513,185,-635
2758,18969146,-225,-2193,-1919,394,203,-697
2759,18969156,-329,-751,-1464,-367,-126,-329
2760,18969166,-35,-936,-1687,403,491,-1585
2761,18969176,-130,-1143,-1626,909,336,-710
2762,18969186,-154,-1114,-1631,843,212,-588
2763,18969196,-157,-1120,-1643,823,95,-557
2764,18969206,-102,-1249,-1571,966,76,-552
2765,18969216,-195,-1222,-1596,1178,50,-566
2766,18969226,-168,-1070,-1711,662,-69,-560
2767,18969236,-112,-1111,-1711,779,-71,-683
2768,18969246,-143,-1217,-1707,955,-78,-316
2769,18969256,-127,-1183,-1723,776,-115,-288
2770,18969266,-131,-1098,-1716,638,-147,-363
2771,18969276,-80,-1045,-1696,682,-146,-381
2772,18969286,-25,-1026,-1670,788,-116,-368
2773,18969296,-36,-1019,-1614,871,-73,-359
2774,18969306,-37,-1058,-1625,895,-83,-364
2775,18969316,4,-1047,-1615,873,-117,-380
2776,18969326,-4,-1044,-1658,848,-156,-380
2777,18969336,-41,-1069,-1715,886,-192,-362
2778,18969346,-23,-1120,-1727,1017,-179,-352
2779,18969356,-1,-1163,-1748,1206,-174,-319
2780,18969366,30,-1224,-1759,1295,-235,-358
2781,18969376,66,-1246,-1799,1296,-362,-512
2782,18969372,67,-1247,-1799,1296,-362,-386
2783,18969382,91,-1265,-1856,1228,-458,-371
2784,18969392,70,-1311,-1915,1183,-516,-339
2785,18969402,-2,-1372,-2028,1162,-572,-303
2786,18969412,-26,-1408,-2196,1207,-619,-353
2787,18969422,-33,-1459,-2370,1345,-682,-449
2788,18969432,-150,-1619,-2561,1566,-818,-497
2789,18969442,-249,-1770,-2787,1874,-866,-585
2790,18969452,-327,-1896,-3032,2188,-860,-748
2791,18969462,-543,-2005,-3395,2361,-768,-913
2792,18969472,-766,-2140,-3662,2469,-179,-1172
2793,18969482,-835,-2315,-3631,2516,905,-1440
2794,18969492,-915,-2547,-3705,2290,1818,-1575
2795,18969502,-1133,-2640,-3856,1731,2632,-1791
2796,18969512,-1234,-2581,-3882,1262,3595,-2256
2797,18969522,-1178,-2501,-3682,1197,4718,-3068
2798,18969532,-975,-2140,-3385,1233,5969,-4009
2799,18969542,-960,-1756,-3242,1257,7111,-4706
2800,18969552,-825,-1517,-2836,1624,8203,-5165
2801,18969562,-615,-1424,-2287,2156,9305,-5506
2802,18969572,-494,-1422,-1867,2374,9888,-5594
2803,18969582,-409,-1467,-1384,2495,10046,-5486
2804,18969592,-172,-1372,-836,2322,9970,-5434
2805,18969602,29,-1114,-638,1640,9247,-5288
2806,18969612,-10,-857,-549,1181,8345,-4789
2807,18969622,-9,-637,-294,1439,7854,-4354
2808,18969619,-9,-638,-294,1439,7853,-4189
2809,18969629,105,-523,162,2111,7524,-3840
2810,18969639,317,-364,656,2440,7124,-3862
2811,18969649,387,-234,916,2269,6347,-3690
2812,18969659,381,-97,992,2029,5595,-3382
2813,18969669,391,32,1151,1963,5165,-3271
2814,18969679,449,131,1285,1982,4876,-3346
2815,18969689,574,347,1579,1920,4655,-3446
2816,18969699,686,534,1891,1991,4168,-3371
2817,18969709,686,617,1994,1881,3538,-3165
2818,18969719,648,692,1901,1627,2973,-2873
2819,18969729,533,832,1800,1354,2316,-2423
2820,18969739,410,905,1746,1287,1878,-2113
2821,18969749,408,1090,1832,1268,1696,-1972
2822,18969759,517,1267,2122,1418,1580,-1887
2823,18969769,638,1397,2293,1477,1306,-1678
2824,18969779,602,1513,2401,1281,770,-1271
2825,18969789,596,1539,2435,1115,165,-800
2826,18969799,608,1647,2545,1042,-593,-261
2827,18969809,549,1749,2723,1060,-1639,380
2828,18969819,530,1828,2809,933,-2700,983
2829,18969829,509,1988,2892,743,-3860,1822
2830,18969839,411,2028,2967,776,-5255,2972
2831,18969849,124,2062,3041,953,-6615,4093
2832,18969859,-153,1960,2998,1215,-7743,5139
2833,18969869,-483,1869,2754,1273,-8693,5891
2834,18969866,-483,1869,2754,1273,-8693,5953
2835,18969876,-978,1655,2224,1240,-9574,6744
2836,18969886,-1467,1330,1736,1421,-10393,7552
2837,18969896,-1841,1007,1297,1807,-10971,8162
2838,18969906,-2037,474,1036,2268,-11377,8490
2839,18969916,-2141,133,888,2462,-11514,8452
2840,18969926,-2314,-452,882,2177,-11442,8188
2841,18969936,-2603,-951,519,1072,-10825,7756
2842,18969946,-3022,-914,114,-1037,-10041,7018
2843,18969956,-3201,-735,-725,-2774,-9043,5805
2844,18969966,-3303,-564,-1580,-2927,-8002,5156
2845,18969976,-3256,-918,-2092,-1575,-7327,5086
2846,18969986,-3053,-1510,-2669,-868,-7365,5062
2847,18969996,-2766,-2092,-3579,-1710,-8110,4874
2848,18970006,-2611,-2961,-4998,-2900,-9073,4881
2849,18970016,-2588,-3000,-6186,-3830,-9174,4296
2850,18970026,-2385,-3190,-6719,-2895,-7312,2692
2851,18970036,-2276,-3067,-6240,-553,-4529,1385
2852,18970046,-1917,-2613,-5298,1722,-1591,258
2853,18970056,-1647,-2118,-4235,2721,410,-661
2854,18970066,-1444,-1678,-3401,3045,1165,-995
2855,18970076,-1287,-1432,-2745,2957,1233,-926
2856,18970086,-1086,-1346,-2289,2731,1096,-715
2857,18970096,-934,-1387,-2092,2331,842,-501
2858,18970106,-755,-1460,-2017,1788,529,-303
2859,18970116,-557,-1513,-2071,1270,210,-256
2860,18970112,-557,-1514,-2071,1270,209,-149
2861,18970122,-477,-1547,-2110,994,-38,-43
2862,18970132,-358,-1631,-2096,1020,-170,20
2863,18970142,-253,-1729,-2079,1063,-247,33
2864,18970152,-189,-1742,-2107,1019,-325,24
2865,18970162,-226,-1701,-2125,930,-420,27
2866,18970172,-247,-1674,-2160,908,-472,42
2867,18970182,-281,-1619,-2225,906,-481,23
2868,18970192,-296,-1582,-2229,989,-412,-23
2869,18970202,-319,-1519,-2261,991,-357,-54
2870,18970212,-330,-1666,-2352,983,-347,-24
2871,18970222,-404,-1767,-2690,754,-368,-19
2872,18970232,-586,-1874,-3108,480,-264,-157
2873,18970242,-596,-2045,-3398,609,321,-436
2874,18970252,-650,-2044,-3590,716,949,-783
2875,18970262,-693,-1985,-3699,845,1565,-1163
2876,18970272,-843,-1982,-3815,892,2269,-1468
2877,18970282,-938,-1999,-3927,1177,3139,-1775
2878,18970292,-1022,-2220,-4034,1572,3964,-2180
2879,18970302,-1266,-2196,-3902,1878,4805,-2547
2880,18970312,-1520,-2300,-3568,2364,5643,-2973
2881,18970322,-1792,-2264,-3466,2272,6357,-3458
2882,18970332,-2260,-2149,-3375,2099,7201,-3905
2883,18970342,-2431,-2044,-2692,2381,8820,-4510
2884,18970352,-2265,-1813,-1781,2589,10207,-5122
2885,18970362,-1969,-1699,-1303,2488,10522,-5635
2886,18970359,-1969,-1699,-1303,2488,10521,-5566
2887,18970369,-1820,-1264,-1167,2063,9879,-5647
2888,18970379,-1495,-985,-826,2167,9044,-5524
2889,18970389,-1250,-715,-653,2241,8558,-5227
2890,18970399,-1098,-464,-555,2523,8156,-4979
2891,18970409,-883,-253,-13,2999,7678,-4794
2892,18970419,-611,-1,365,3153,7310,-4692
2893,18970429,-195,56,686,3299,7049,-4675
2894,18970439,50,106,1095,3290,6527,-4552
2895,18970449,419,219,1484,3131,5967,-4537
2896,18970459,683,237,1686,2817,5145,-4335
2897,18970469,764,328,1708,2330,4266,-4047
2898,18970479,825,429,1701,1918,3561,-3946
2899,18970489,812,592,1524,1498,3122,-3807
2900,18970499,861,763,1559,1396,2937,-3706
2901,18970509,865,795,1612,1633,2713,-3488
2902,18970519,803,831,1583,1558,2330,-3140
2903,18970529,868,915,1590,1422,2047,-2866
2904,18970539,885,995,1693,1458,1755,-2598
2905,18970549,918,1081,1722,1487,1363,-2315
2906,18970559,1034,1126,1798,1545,1072,-2126
2907,18970569,1034,1098,1722,1574,655,-1823
2908,18970579,1014,1142,1601,1402,216,-1568
2909,18970589,1008,1197,1474,1303,-103,-1377
2910,18970599,1084,1229,1427,1326,-247,-1206
2911,18970609,1169,1213,1411,1412,-335,-1024
2912,18970606,1169,1213,1412,1412,-335,-1019
2913,18970616,1223,1190,1345,1404,-473,-792
2914,18970626,1289,1208,1263,1346,-651,-545
2915,18970636,1384,1103,1222,1361,-765,-349
2916,18970646,1416,1057,1139,1302,-937,-159
2917,18970656,1553,1045,1096,1220,-1121,-34
2918,18970666,1670,1033,1056,1131,-1290,75
2919,18970676,1726,1063,1016,1018,-1513,237
2920,18970686,1771,1003,948,1003,-1725,421
2921,18970696,1830,997,874,853,-1861,599
2922,18970706,1845,963,770,702,-2005,807
2923,18970716,1838,871,677,656,-2093,1016
2924,18970726,1840,778,564,672,-2103,1196
2925,18970736,1916,673,499,736,-1940,1278
2926,18970746,1903,512,449,883,-1776,1335
2927,18970756,1923,401,492,1000,-1575,1299
2928,18970766,1995,312,478,1066,-1403,1205
2929,18970776,2071,281,492,1079,-1365,1145
2930,18970786,2107,193,560,1185,-1430,1173
2931,18970796,2152,121,500,1171,-1611,1211
2932,18970806,2184,65,388,1040,-1830,1252
2933,18970816,2097,-32,224,895,-2029,1331
2934,18970826,2032,-62,101,810,-2132,1376
2935,18970836,2090,-51,80,850,-2146,1342
2936,18970846,2046,-30,25,921,-2212,1353
2937,18970856,2001,-88,-48,1044,-2195,1281
2938,18970853,2002,-89,-48,1045,-2196,1363
2939,18970863,2030,-174,-98,1213,-1966,1308
2940,18970873,2012,-171,-165,1186,-1713,1228
2941,18970883,2017,-158,-88,1279,-1405,1108
2942,18970893,2038,-152,20,1440,-1183,987
2943,18970903,2107,-59,146,1487,-1178,926
2944,18970913,2132,-14,218,1486,-1376,1030
2945,18970923,2030,-30,223,1478,-1759,1261
2946,18970933,1997,-50,193,1385,-2172,1526
2947,18970943,1997,-101,144,1205,-2540,1769
2948,18970953,1971,-98,128,1038,-2865,1973
2949,18970963,1982,-113,125,932,-3156,2117
2950,18970973,2013,-121,130,867,-3440,2231
2951,18970983,1995,-153,116,800,-3715,2313
2952,18970993,1919,-161,86,662,-3954,2431
2953,18971003,1902,-200,63,542,-4146,2497
2954,18971013,1912,-158,-25,416,-4245,2536
2955,18971023,1887,-74,-138,396,-4318,2543
2956,18971033,1870,-44,-160,672,-4341,2696
2957,18971043,1804,-134,-191,1033,-4444,2998
2958,18971053,1684,-219,-346,1131,-4616,3277
2959,18971063,1478,-303,-397,1069,-4695,3465
2960,18971073,1288,-420,-439,1020,-4765,3660
2961,18971083,1154,-413,-463,881,-4803,3756
2962,18971093,1003,-401,-466,795,-4751,3778
2963,18971103,869,-414,-441,753,-4718,3842
2964,18971099,869,-414,-440,753,-4719,3920
2965,18971109,715,-401,-408,685,-4683,4134
2966,18971119,474,-443,-424,590,-4716,4368
2967,18971129,-55,-842,-507,460,-4778,4630
2968,18971139,-611,-1322,-974,102,-5029,5037
2969,18971149,-894,-1697,-1407,-253,-5603,4955
2970,18971159,-936,-2011,-1714,-432,-5989,3914
2971,18971169,-1066,-1970,-2208,-1034,-5989,2871
2972,18971179,-1048,-1637,-2685,-1629,-5583,1905
2973,18971189,-830,-1258,-2881,-1459,-4864,883
2974,18971199,-638,-997,-2765,-554,-3740,448
2975,18971209,-432,-884,-2488,591,-2513,534
2976,18971219,-284,-877,-2196,1479,-1349,827
2977,18971229,-216,-908,-1939,1896,-516,1034
2978,18971239,-261,-1125,-1692,2024,-105,1129
2979,18971249,-376,-1356,-1618,1834,-108,1314
2980,18971259,-518,-1558,-1705,1437,-460,1306
2981,18971269,-625,-1576,-1849,1001,-896,1056
2982,18971279,-652,-1482,-1983,729,-1153,642
2983,18971289,-609,-1391,-2085,703,-1121,371
2984,18971299,-603,-1348,-2111,850,-899,195
2985,18971309,-586,-1257,-2072,992,-594,106
2986,18971319,-484,-1266,-1938,1190,-251,63
2987,18971329,-443,-1255,-1833,1311,-9,51
2988,18971339,-426,-1311,-1746,1351,56,64
2989,18971349,-392,-1337,-1746,1287,48,0
2990,18971346,-392,-1338,-1746,1287,47,102
2991,18971356,-365,-1326,-1743,1169,20,122
2992,18971366,-386,-1381,-1781,1080,-52,125
2993,18971376,-414,-1383,-1803,1028,-126,132
2994,18971386,-367,-1370,-1801,1035,-198,102
2995,18971396,-368,-1372,-1801,1053,-233,33
2996,18971406,-387,-1348,-1795,1022,-269,-6
2997,18971416,-382,-1326,-1809,1027,-280,-23
2998,18971426,-349,-1322,-1810,1068,-251,-37
2999,18971436,-348,-1333,-1829,1110,-196,-50
3000,18971446,-357,-1391,-1833,1121,-189,-61
3001,18971456,-355,-1416,-1868,1089,-226,-55
3002,18971466,-376,-1426,-1956,996,-310,-39
3003,18971476,-399,-1434,-2002,1008,-319,-57
3004,18971486,-375,-1418,-1998,1077,-285,-95
3005,18971496,-321,-1380,-1959,1141,-208,-154
3006,18971506,-281,-1338,-1853,1215,-124,-222
3007,18971516,-227,-1279,-1747,1273,-59,-281
3008,18971526,-137,-1213,-1634,1303,-41,-297
3009,18971536,-108,-1151,-1601,1277,-73,-316
3010,18971546,-105,-1080,-1562,1247,-122,-307
3011,18971556,-83,-1102,-1563,1239,-188,-258
3012,18971566,-90,-1087,-1557,1156,-231,-197
3013,18971576,-109,-1074,-1553,1048,-241,-155
3014,18971586,-137,-1081,-1552,996,-233,-142
3015,18971596,-114,-1070,-1568,1001,-198,-256
3016,18971593,-113,-1070,-1568,1002,-199,-134
3017,18971603,-104,-1062,-1578,992,-175,-133
3018,18971613,-134,-1063,-1573,1035,-188,-132
3019,18971623,-110,-1042,-1593,1080,-253,-129
3020,18971633,-92,-1046,-1614,1126,-329,-105
3021,18971643,-127,-1057,-1618,1191,-403,-61
3022,18971653,-140,-1081,-1637,1238,-460,-37
3023,18971663,-136,-1082,-1639,1248,-501,-29
3024,18971673,-167,-1133,-1646,1246,-501,-4
3025,18971683,-248,-1163,-1720,1227,-507,76
3026,18971693,-250,-1197,-1749,1248,-457,98
3027,18971703,-201,-1221,-1717,1303,-336,47
3028,18971713,-215,-1228,-1673,1335,-267,10
3029,18971723,-198,-1254,-1648,1352,-246,-1
3030,18971733,-185,-1247,-1644,1284,-275,-48
3031,18971743,-178,-1232,-1640,1214,-312,-84
3032,18971753,-191,-1231,-1620,1187,-336,-87
3033,18971763,-195,-1249,-1629,1162,-331,-90
3034,18971773,-179,-1237,-1639,1122,-319,-52
3035,18971783,-191,-1199,-1633,1054,-329,-77
3036,18971793,-198,-1185,-1620,1082,-297,-88
3037,18971803,-138,-1179,-1618,1117,-276,-80
3038,18971813,-162,-1187,-1634,1135,-292,-67
3039,18971823,-209,-1187,-1624,1133,-302,-43
3040,18971833,-194,-1172,-1646,1100,-291,-77
3041,18971843,-157,-1165,-1644,1096,-278,-256
3042,18971840,-157,-1166,-1644,1097,-278,-74
3043,18971850,-199,-1193,-1633,1122,-268,-47
3044,18971860,-212,-1178,-1640,1090,-235,-56
3045,18971870,-184,-1181,-1616,1074,-205,-74
3046,18971880,-180,-1225,-1592,1136,-184,-46
3047,18971890,-191,-1217,-1571,1115,-201,-58
3048,18971900,-173,-1223,-1592,1105,-221,-62
3049,18971910,-180,-1220,-1587,1096,-253,-41
3050,18971920,-185,-1230,-1593,1096,-271,-47
3051,18971930,-227,-1239,-1629,1093,-262,-72
3052,18971940,-189,-1221,-1635,1098,-217,-91
3053,18971950,-161,-1216,-1626,1107,-198,-121
3054,18971960,-189,-1199,-1621,1109,-203,-135
3055,18971970,-171,-1189,-1624,1110,-226,-120
3056,18971980,-166,-1194,-1637,1108,-231,-88
3057,18971990,-195,-1209,-1640,1108,-199,-84
3058,18972000,-195,-1192,-1614,1109,-161,-106
3059,18972010,-146,-1193,-1599,1111,-161,-104
3060,18972020,-165,-1205,-1603,1119,-201,-60
3061,18972030,-186,-1213,-1601,1112,-254,-53
3062,18972040,-164,-1188,-1603,1097,-282,-71
3063,18972050,-149,-1198,-1592,1111,-289,-53
3064,18972060,-167,-1210,-1585,1125,-298,-37
3065,18972070,-187,-1217,-1592,1123,-302,-37
3066,18972080,-169,-1224,-1621,1144,-302,-39
3067,18972090,-163,-1202,-1636,1168,-293,-256
