sequence,timestamp_ms,accel_x,accel_y,accel_z,gyro_x,gyro_y,gyro_z
1664,18417035,-218,-415,-1958,689,-102,-42
1665,18417045,-197,-427,-1956,693,-105,-45
1666,18417055,-226,-437,-1965,699,-108,-42
1667,18417065,-227,-431,-1942,705,-110,-35
1668,18417075,-211,-426,-1954,708,-109,-40
1669,18417085,-205,-446,-1934,699,-103,-39
1670,18417095,-229,-435,-1947,705,-103,-45
1671,18417105,-221,-430,-1956,696,-96,-38
1672,18417115,-216,-432,-1941,685,-91,-36
1673,18417125,-232,-439,-1946,707,-91,-45
1674,18417135,-227,-424,-1958,679,-89,-30
1675,18417145,-204,-409,-1946,693,-88,-48
1676,18417155,-223,-428,-1960,697,-92,-38
1677,18417165,-238,-417,-1963,676,-94,-36
1678,18417175,-227,-422,-1944,707,-101,-46
1679,18417185,-212,-412,-1952,703,-102,-28
1680,18417195,-225,-422,-1948,705,-101,-36
1681,18417205,-233,-441,-1959,722,-105,-34
1682,18417215,-218,-422,-1955,696,-105,-23
1683,18417225,-215,-439,-1943,708,-104,-38
1684,18417235,-235,-425,-1950,703,-102,-30
1685,18417245,-226,-415,-1945,690,-100,-31
1686,18417255,-215,-427,-1947,699,-98,-38
1687,18417265,-241,-419,-1950,689,-97,-35
1688,18417275,-237,-427,-1948,690,-93,-43
1689,18417285,-215,-432,-1946,695,-93,-256
1690,18417282,-215,-433,-1946,696,-94,-41
1691,18417292,-218,-417,-1955,692,-95,-28
1692,18417302,-223,-441,-1963,696,-98,-35
1693,18417312,-223,-417,-1949,695,-101,-30
1694,18417322,-192,-430,-1959,686,-104,-27
1695,18417332,-225,-422,-1950,683,-110,-28
1696,18417342,-235,-421,-1957,682,-119,-18
1697,18417352,-217,-413,-1956,683,-126,-17
1698,18417362,-228,-457,-1952,690,-134,-1
1699,18417372,-237,-435,-1971,658,-147,4
1700,18417382,-208,-440,-1993,641,-164,4
1701,18417392,-192,-471,-1987,622,-191,24
1702,18417402,-240,-480,-2081,542,-280,58
1703,18417412,-182,-408,-2092,457,-332,14
1704,18417422,-183,-430,-2057,559,-378,43
1705,18417432,-228,-387,-2103,504,-457,55
1706,18417442,-301,-374,-2194,511,-547,32
1707,18417452,-390,-208,-2286,563,-564,43
1708,18417462,-391,45,-2668,763,-383,-63
1709,18417472,-286,-211,-2366,1497,433,98
1710,18417482,-116,-472,-2043,2279,581,294
1711,18417492,24,-461,-2053,2047,453,79
1712,18417502,-119,-366,-2190,1581,157,138
1713,18417512,-179,-549,-2252,1472,31,319
1714,18417522,-230,-434,-2180,1359,136,505
1715,18417532,-117,-446,-2128,1244,356,256
1716,18417529,-117,-447,-2128,1244,356,502
1717,18417539,-48,-531,-1945,1390,603,507
1718,18417549,-54,-642,-1886,1355,673,639
1719,18417559,-391,-462,-1839,1172,663,674
1720,18417569,194,-806,-1760,1247,979,114
1721,18417579,-8,-389,-2111,-59,860,28
1722,18417589,45,-638,-1812,1146,904,300
1723,18417599,78,-892,-1612,2164,909,303
1724,18417609,175,-883,-1728,1883,913,-43
1725,18417619,63,-597,-1820,1300,741,-71
1726,18417629,284,-353,-1709,1133,728,-330
1727,18417639,373,-288,-1500,1470,884,-419
1728,18417649,365,-375,-1365,1753,968,-307
1729,18417659,294,-472,-1301,1807,991,-64
1730,18417669,229,-580,-1372,1739,1030,192
1731,18417679,131,-529,-1562,1552,962,307
1732,18417689,51,-577,-1627,1645,948,379
1733,18417699,-6,-702,-1610,1996,956,375
1734,18417709,79,-752,-1635,2115,1001,150
1735,18417719,40,-731,-1678,2014,814,-23
1736,18417729,105,-669,-1680,1856,641,-127
1737,18417739,61,-717,-1612,1812,543,-168
1738,18417749,16,-770,-1567,1743,413,-61
1739,18417759,27,-783,-1558,1514,339,9
1740,18417769,17,-814,-1564,1306,216,82
1741,18417779,-9,-849,-1643,1051,77,0
1742,18417775,-9,-850,-1643,1052,77,208
1743,18417785,-47,-958,-1786,810,-27,298
1744,18417795,-78,-1017,-1932,644,-100,380
1745,18417805,-64,-1044,-2006,656,-181,347
1746,18417815,-143,-1117,-2030,795,-246,275
1747,18417825,-241,-1179,-2021,1006,-273,200
1748,18417835,-220,-1166,-2019,1014,-200,24
1749,18417845,-251,-1226,-2079,844,-172,-80
1750,18417855,-307,-1283,-2238,700,-194,20
1751,18417865,-362,-1333,-2296,553,-265,128
1752,18417875,-249,-1193,-2121,512,-143,-11
1753,18417885,-301,-697,-1792,605,65,-223
1754,18417895,248,-1127,-1568,1488,279,-647
1755,18417905,131,-920,-1807,734,-81,-355
1756,18417915,108,-879,-1885,759,-79,-363
1757,18417925,71,-941,-1836,780,110,-238
1758,18417935,144,-946,-1733,835,319,-249
1759,18417945,237,-952,-1650,805,356,-281
1760,18417955,234,-997,-1586,843,271,-241
1761,18417965,239,-1010,-1561,856,160,-225
1762,18417975,260,-1003,-1605,805,33,-232
1763,18417985,223,-984,-1615,799,-98,-200
1764,18417995,193,-962,-1616,793,-201,-220
1765,18418005,195,-937,-1621,761,-314,-218
1766,18418015,200,-921,-1642,733,-420,-177
1767,18418025,146,-913,-1731,706,-499,-256
1768,18418022,147,-913,-1731,707,-499,-155
1769,18418032,127,-934,-1846,718,-447,-157
1770,18418042,155,-972,-1837,814,-288,-194
1771,18418052,152,-969,-1788,809,-160,-204
1772,18418062,146,-956,-1720,740,-100,-193
1773,18418072,151,-904,-1716,684,-118,-170
1774,18418082,165,-887,-1722,682,-188,-134
1775,18418092,160,-874,-1737,639,-233,-128
1776,18418102,132,-865,-1712,642,-290,-43
1777,18418112,149,-879,-1711,633,-330,2
1778,18418122,111,-786,-1732,567,-373,65
1779,18418132,-27,-895,-1738,670,-402,142
1780,18418142,111,-1008,-1943,563,-304,151
1781,18418152,-22,-961,-1935,-442,-294,440
1782,18418162,77,-937,-1734,-262,-88,293
1783,18418172,209,-775,-1639,-480,-44,145
1784,18418182,335,618,-1265,-394,-345,273
1785,18418192,652,-1108,-1764,693,-668,12
1786,18418202,-308,-1006,-2176,-1121,-1083,580
1787,18418212,42,-772,-2160,-496,-857,50
1788,18418222,-34,-742,-2091,-269,-886,94
1789,18418232,-72,-754,-2025,100,-889,178
1790,18418242,-118,-710,-1982,359,-814,197
1791,18418252,-119,-714,-1966,565,-777,153
1792,18418262,-219,-786,-1922,761,-736,178
1793,18418272,-373,-820,-1943,859,-552,0
1794,18418269,-373,-821,-1943,860,-552,236
1795,18418279,-457,-1086,-1839,1181,-343,212
1796,18418289,-85,-265,-1514,1158,-214,102
1797,18418299,-537,-1612,-2067,639,-240,-154
1798,18418309,-1094,-1085,-2320,505,60,285
1799,18418319,-481,-1833,-1935,1223,-237,274
1800,18418329,-606,-1189,-2099,322,-92,-107
1801,18418339,-329,-1115,-1969,357,171,-699
1802,18418349,-288,-1090,-1873,634,146,-729
1803,18418359,-248,-983,-1832,526,31,-721
1804,18418369,-164,-847,-1773,361,-54,-825
1805,18418379,-52,-784,-1685,430,-121,-885
1806,18418389,42,-747,-1605,508,-221,-890
1807,18418399,78,-709,-1574,473,-378,-855
1808,18418409,119,-662,-1605,425,-567,-819
1809,18418419,138,-638,-1657,499,-742,-761
1810,18418429,203,-621,-1645,608,-838,-731
1811,18418439,216,-571,-1666,714,-913,-727
1812,18418449,203,-593,-1722,772,-955,-698
1813,18418459,232,-592,-1830,692,-926,-659
1814,18418469,183,-626,-1836,637,-967,-581
1815,18418479,111,-654,-1840,526,-1004,-499
1816,18418489,139,-535,-1941,140,-999,-417
1817,18418499,107,-482,-1980,-127,-1115,-349
1818,18418509,10,-508,-2011,-219,-1347,-208
1819,18418519,-128,-486,-2127,-360,-1612,-256
1820,18418515,-128,-487,-2127,-360,-1612,-49
1821,18418525,-228,-436,-2293,-519,-1811,23
1822,18418535,-457,-451,-2399,-415,-1938,144
1823,18418545,-676,-550,-2552,-231,-2075,336
1824,18418555,-856,-586,-2813,-139,-2283,539
1825,18418565,-1062,-636,-3108,103,-2428,733
1826,18418575,-1285,-942,-3482,517,-2419,884
1827,18418585,-1550,-1286,-3900,805,-2150,789
1828,18418595,-1878,-1521,-4457,730,-1767,562
1829,18418605,-2125,-1632,-4774,502,-847,19
1830,18418615,-2307,-1497,-4739,355,739,-529
1831,18418625,-2158,-1309,-4382,392,2454,-1176
1832,18418635,-2140,-1223,-4009,627,3633,-1589
1833,18418645,-2331,-986,-3774,591,4240,-1664
1834,18418655,-2477,-895,-3535,582,5062,-1621
1835,18418665,-2372,-944,-3177,863,6403,-1563
1836,18418675,-2247,-1040,-2715,1056,7475,-1642
1837,18418685,-2160,-1036,-2214,979,7963,-1926
1838,18418695,-2141,-935,-2009,804,8169,-2286
1839,18418705,-2021,-631,-1878,598,8512,-2584
1840,18418715,-1783,-349,-1560,862,9084,-2959
1841,18418725,-1500,-71,-1258,1281,9481,-3195
1842,18418735,-1266,116,-969,1694,9599,-3198
1843,18418745,-1113,108,-657,2478,9602,-2933
1844,18418755,-1005,-80,-346,2930,9098,-2935
1845,18418765,-829,-11,-78,2901,8905,-3073
1846,18418762,-828,-11,-78,2901,8904,-2941
1847,18418772,-676,3,121,2656,8644,-3022
1848,18418782,-556,-12,232,2503,8524,-3084
1849,18418792,-473,-214,423,2405,8215,-3136
1850,18418802,-447,-67,344,1862,7939,-3146
1851,18418812,-384,106,580,1465,7708,-3228
1852,18418822,-227,27,888,1622,7310,-3420
1853,18418832,-70,84,1021,1427,6959,-3450
1854,18418842,-50,159,1181,1241,6374,-3409
1855,18418852,-34,192,1311,1215,5744,-3530
1856,18418862,-16,367,1328,973,5257,-3651
1857,18418872,45,511,1478,896,5037,-3714
1858,18418882,159,686,1672,1030,5142,-3712
1859,18418892,255,753,1921,1251,5254,-3641
1860,18418902,421,845,2143,1472,5167,-3611
1861,18418912,573,968,2391,1532,4841,-3568
1862,18418922,654,1041,2514,1445,4357,-3428
1863,18418932,642,1282,2396,1104,3865,-3261
1864,18418942,643,1469,2323,915,3439,-3013
1865,18418952,562,1546,2277,1048,3076,-2761
1866,18418962,502,1692,2275,1106,2878,-2552
1867,18418972,447,1820,2294,1196,2638,-2392
1868,18418982,377,1969,2406,1307,2394,-2266
1869,18418992,384,2127,2560,1433,2303,-2241
1870,18419002,375,2356,2766,1355,2180,-2252
1871,18419012,375,2596,3015,1129,1860,-2305
1872,18419008,375,2596,3015,1129,1859,-2218
1873,18419018,444,2909,3093,662,1548,-2141
1874,18419028,660,3124,3165,304,1214,-1941
1875,18419038,952,3099,3136,150,777,-1544
1876,18419048,1205,2946,2856,-10,263,-966
1877,18419058,1242,2656,2380,-143,-345,-185
1878,18419068,1157,2267,1896,-78,-968,640
1879,18419078,1103,1872,1497,244,-1303,1184
1880,18419088,1006,1494,1182,655,-1452,1533
1881,18419098,984,1207,1035,898,-1347,1724
1882,18419108,1052,913,981,1240,-1200,1800
1883,18419118,1001,572,1035,1467,-1190,1807
1884,18419128,922,399,1136,1387,-1149,1704
1885,18419138,1008,325,1330,1124,-1027,1390
1886,18419148,1096,382,1507,832,-984,1055
1887,18419158,1157,491,1680,476,-1077,785
1888,18419168,1154,655,1735,166,-1243,596
1889,18419178,1146,825,1725,-132,-1504,517
1890,18419188,1150,929,1675,-306,-1740,477
1891,18419198,1100,1147,1601,-449,-1935,493
1892,18419208,1068,1286,1590,-312,-2059,546
1893,18419218,1110,1355,1662,-14,-2066,651
1894,18419228,1196,1405,1762,160,-2159,819
1895,18419238,1306,1434,1854,203,-2425,1060
1896,18419248,1415,1440,1979,222,-2912,1340
1897,18419258,1508,1464,2095,321,-3512,1537
1898,18419255,1508,1464,2096,322,-3512,1556
1899,18419265,1557,1557,2257,408,-4213,1768
1900,18419275,1512,1629,2339,591,-5043,2071
1901,18419285,1369,1699,2339,884,-5955,2519
1902,18419295,1010,1720,2162,1257,-6835,3010
1903,18419305,691,1386,1814,1756,-7502,3354
1904,18419315,407,1167,1331,1748,-7875,3590
1905,18419325,167,1208,635,1552,-7839,3563
1906,18419335,247,1176,212,2167,-7069,3347
1907,18419345,669,932,428,3438,-5805,3176
1908,18419355,907,599,815,4455,-4816,3403
1909,18419365,933,446,1068,4560,-4604,3787
1910,18419375,961,285,1211,4243,-4939,3999
1911,18419385,796,169,1218,3742,-5847,4348
1912,18419395,598,217,1072,3021,-6971,4686
1913,18419405,209,88,756,2154,-7874,4963
1914,18419415,-60,-87,442,1045,-8264,5070
1915,18419425,-324,-629,-144,89,-8259,4940
1916,18419435,-711,-829,-491,-1266,-7780,4811
1917,18419445,-534,-445,-905,-2742,-6762,4234
1918,18419455,-527,-238,-988,-3036,-6025,3810
1919,18419465,-659,-333,-848,-2226,-5654,4129
1920,18419475,-701,-178,-653,-1637,-5373,4520
1921,18419485,-1034,-276,-704,-1323,-5632,4661
1922,18419495,-1413,-814,-1263,-1466,-5867,4510
1923,18419505,-1607,-833,-1920,-2832,-6039,3842
1924,18419502,-1607,-833,-1920,-2832,-6040,3922
1925,18419512,-1647,-482,-2532,-4214,-6075,2983
1926,18419522,-1569,-104,-2933,-4370,-5837,2084
1927,18419532,-1624,1,-3179,-3351,-5538,1682
1928,18419542,-1700,-116,-3274,-1929,-5186,1810
1929,18419552,-1837,-630,-3466,-557,-4936,1945
1930,18419562,-1964,-1055,-3755,101,-4791,1692
1931,18419572,-1906,-1125,-3927,89,-4197,1122
1932,18419582,-1780,-972,-3974,254,-3121,589
1933,18419592,-1636,-773,-3728,892,-1849,184
1934,18419602,-1500,-587,-3289,1514,-770,-75
1935,18419612,-1339,-434,-2828,1697,-53,-136
1936,18419622,-1293,-477,-2377,1817,186,-21
1937,18419632,-1201,-504,-2135,1683,168,185
1938,18419642,-1052,-617,-2047,1425,-66,278
1939,18419652,-996,-569,-2085,989,-537,356
1940,18419662,-855,-490,-2207,691,-992,284
1941,18419672,-781,-493,-2282,871,-1371,321
1942,18419682,-666,-388,-2154,1291,-1687,342
1943,18419692,-500,-4835,-3404,2205,-1652,-335
1944,18419702,-2775,311,-4171,-7239,-1971,223
1945,18419712,-655,560,-3164,-5105,-825,-2375
1946,18419722,-348,1180,-3236,-51,347,-1789
1947,18419732,-442,-335,-1565,3256,2261,-294
1948,18419742,-133,-810,-1114,3776,1595,-419
1949,18419752,11,-516,-1392,1530,1083,-768
1950,18419749,11,-517,-1392,1530,1083,-636
1951,18419759,-552,-163,-2220,834,820,-390
1952,18419769,-347,-279,-2058,1660,738,-656
1953,18419779,-446,-326,-2174,2204,761,-628
1954,18419789,-420,-449,-2076,2155,854,-512
1955,18419799,-126,-487,-1951,2124,945,-425
1956,18419809,-97,-570,-2038,1937,802,-265
1957,18419819,-160,-636,-2012,1899,610,-209
1958,18419829,-179,-549,-2018,1607,488,-131
1959,18419839,-174,-601,-2063,1443,376,-67
1960,18419849,-176,-583,-1974,1315,285,-63
1961,18419859,-200,-555,-1993,1118,218,-34
1962,18419869,-220,-564,-2000,1037,149,-34
1963,18419879,-192,-502,-1952,983,116,-55
1964,18419889,-219,-482,-1958,917,63,-42
1965,18419899,-240,-513,-1934,897,12,-47
1966,18419909,-201,-496,-1948,873,-26,-18
1967,18419919,-241,-523,-1944,847,-38,-21
1968,18419929,-235,-532,-1909,834,-28,-47
1969,18419939,-227,-593,-1877,791,-30,-47
1970,18419949,-225,-674,-1808,634,-54,-58
1971,18419959,-226,-645,-1808,153,-100,-139
1972,18419969,-257,-360,-2041,-272,-128,-204
1973,18419979,-243,-510,-1967,264,-79,-126
1974,18419989,-227,-505,-1937,558,-24,-82
1975,18419999,-225,-519,-1929,642,7,-256
1976,18419995,-225,-519,-1929,642,7,-100
1977,18420005,-219,-525,-1945,689,22,-110
1978,18420015,-208,-540,-1953,683,38,-114
1979,18420025,-215,-497,-1955,634,43,-101
1980,18420035,-210,-500,-1956,648,34,-88
1981,18420045,-183,-526,-1949,656,34,-84
1982,18420055,-188,-512,-1954,610,14,-66
1983,18420065,-220,-492,-1959,578,-11,-52
1984,18420075,-204,-475,-1964,595,-29,-57
1985,18420085,-194,-483,-1954,623,-52,-42
1986,18420095,-230,-488,-1935,636,-60,-33
1987,18420105,-212,-479,-1948,651,-64,-29
1988,18420115,-202,-489,-1932,659,-67,-22
1989,18420125,-208,-479,-1918,670,-65,-20
1990,18420135,-229,-482,-1926,694,-66,-18
1991,18420145,-225,-467,-1931,714,-58,-22
1992,18420155,-191,-480,-1923,729,-44,-32
1993,18420165,-228,-487,-1936,739,-33,-39
1994,18420175,-218,-485,-1923,751,-24,-46
1995,18420185,-197,-482,-1943,747,-21,-63
1996,18420195,-194,-478,-1933,747,-21,-74
1997,18420205,-209,-479,-1950,743,-20,-86
1998,18420215,-195,-476,-1943,731,-31,-98
1999,18420225,-178,-475,-1973,695,-43,-113
2000,18420235,-200,-482,-1957,696,-57,-104
2001,18420245,-186,-469,-1942,684,-67,-256
2002,18420242,-185,-469,-1942,685,-67,-94
2003,18420252,-179,-461,-1953,691,-87,-70
2004,18420262,-176,-470,-1954,689,-93,-61
2005,18420272,-196,-479,-1951,691,-104,-46
2006,18420282,-193,-470,-1951,686,-111,-38
2007,18420292,-178,-484,-1956,684,-113,-35
2008,18420302,-194,-494,-1943,680,-121,-28
2009,18420312,-206,-482,-1951,673,-122,-29
2010,18420322,-186,-497,-1936,677,-117,-26
2011,18420332,-193,-495,-1943,669,-117,-33
2012,18420342,-215,-490,-1916,662,-110,-42
2013,18420352,-204,-473,-1922,664,-101,-55
2014,18420362,-186,-500,-1929,673,-90,-64
2015,18420372,-199,-489,-1935,685,-90,-61
2016,18420382,-200,-486,-1944,695,-92,-57
2017,18420392,-181,-478,-1940,701,-91,-49
2018,18420402,-201,-481,-1954,702,-105,-32
2019,18420412,-219,-489,-1936,707,-96,-35
2020,18420422,-181,-489,-1946,709,-91,-39
2021,18420432,-192,-489,-1944,714,-82,-45
2022,18420442,-205,-484,-1926,713,-75,-49
2023,18420452,-204,-490,-1956,710,-72,-50
2024,18420462,-187,-479,-1955,708,-72,-50
2025,18420472,-192,-484,-1939,715,-69,-51
2026,18420482,-210,-475,-1949,712,-68,-53
2027,18420492,-198,-482,-1948,712,-68,-256
2028,18420488,-198,-483,-1948,712,-68,-51
2029,18420498,-186,-494,-1948,707,-73,-44
2030,18420508,-210,-495,-1935,707,-71,-42
2031,18420518,-211,-499,-1956,702,-77,-42
2032,18420528,-183,-478,-1937,706,-70,-48
2033,18420538,-177,-478,-1929,707,-71,-49
2034,18420548,-217,-481,-1956,704,-81,-40
2035,18420558,-182,-468,-1943,709,-81,-39
2036,18420568,-183,-477,-1941,707,-86,-29
2037,18420578,-207,-493,-1945,702,-95,-24
2038,18420588,-205,-487,-1934,696,-93,-27
2039,18420598,-170,-488,-1950,695,-92,-31
2040,18420608,-176,-481,-1939,698,-91,-36
2041,18420618,-204,-478,-1952,694,-93,-35
2042,18420628,-195,-480,-1942,693,-95,-35
2043,18420638,-176,-475,-1933,691,-92,-37
2044,18420648,-208,-488,-1945,685,-94,-42
2045,18420658,-196,-487,-1958,684,-88,-53
2046,18420668,-165,-488,-1944,694,-90,-51
2047,18420678,-190,-470,-1949,681,-98,-42
2048,18420688,-201,-479,-1947,685,-99,-42
2049,18420698,-184,-476,-1947,682,-94,-40
2050,18420708,-184,-485,-1947,687,-93,-45
2051,18420718,-203,-474,-1956,692,-87,-50
2052,18420728,-190,-497,-1945,706,-80,-57
2053,18420738,-187,-494,-1942,705,-80,-256
2054,18420735,-187,-495,-1942,706,-80,-49
2055,18420745,-187,-492,-1936,702,-79,-55
2056,18420755,-199,-484,-1939,701,-80,-55
2057,18420765,-198,-481,-1951,704,-79,-51
2058,18420775,-173,-492,-1964,700,-83,-50
2059,18420785,-183,-483,-1935,710,-77,-53
2060,18420795,-202,-486,-1962,704,-83,-45
2061,18420805,-182,-485,-1943,711,-79,-49
2062,18420815,-182,-484,-1932,703,-81,-43
2063,18420825,-197,-490,-1951,711,-79,-48
2064,18420835,-182,-493,-1940,710,-74,-51
2065,18420845,-177,-477,-1944,709,-75,-57
2066,18420855,-187,-491,-1958,703,-79,-53
2067,18420865,-197,-486,-1953,704,-79,-51
2068,18420875,-175,-489,-1944,698,-85,-45
2069,18420885,-173,-479,-1938,693,-88,-43
2070,18420895,-192,-487,-1945,696,-85,-44
2071,18420905,-183,-487,-1952,689,-89,-43
2072,18420915,-171,-489,-1942,693,-86,-47
2073,18420925,-197,-496,-1951,688,-88,-43
2074,18420935,-190,-476,-1935,686,-91,-46
2075,18420945,-173,-482,-1940,683,-93,-40
2076,18420955,-184,-484,-1953,686,-95,-42
2077,18420965,-184,-490,-1943,685,-90,-46
2078,18420975,-168,-489,-1946,687,-92,-45
2079,18420985,-172,-484,-1942,686,-94,-256
2080,18420982,-172,-485,-1942,687,-94,-43
2081,18420992,-202,-493,-1946,687,-92,-43
2082,18421002,-181,-481,-1934,692,-91,-45
2083,18421012,-171,-478,-1940,694,-85,-47
2084,18421022,-191,-494,-1942,700,-84,-52
2085,18421032,-197,-485,-1933,700,-82,-53
2086,18421042,-180,-467,-1942,700,-84,-53
2087,18421052,-167,-473,-1962,699,-89,-47
2088,18421062,-192,-498,-1933,693,-96,-35
2089,18421072,-197,-493,-1942,690,-98,-34
2090,18421082,-168,-484,-1931,688,-93,-39
2091,18421092,-188,-486,-1959,680,-99,-38
2092,18421102,-190,-479,-1938,683,-96,-40
2093,18421112,-183,-488,-1946,673,-101,-31
2094,18421122,-182,-484,-1961,667,-110,-27
2095,18421132,-187,-481,-1916,673,-104,-30
2096,18421142,-198,-474,-1945,672,-106,-30
2097,18421152,-170,-488,-1941,678,-104,-37
2098,18421162,-197,-482,-1939,681,-100,-36
2099,18421172,-200,-487,-1950,681,-102,-39
2100,18421182,-190,-496,-1938,681,-96,-40
2101,18421192,-177,-490,-1941,674,-103,-30
2102,18421202,-197,-494,-1935,672,-99,-36
2103,18421212,-199,-473,-1933,677,-90,-42
2104,18421222,-179,-476,-1945,687,-89,-55
2105,18421232,-181,-474,-1933,697,-80,-256
