sequence,timestamp_ms,accel_x,accel_y,accel_z,gyro_x,gyro_y,gyro_z
0,18942977,870,33,-1845,929,113,-167
1,18942987,798,4,-1842,969,171,-192
2,18942997,920,16,-1853,980,249,-210
3,18943007,887,16,-1849,1009,247,-201
4,18943017,879,10,-1830,980,158,-137
5,18943027,930,41,-1835,893,138,-86
6,18943037,858,80,-1802,852,22,-37
7,18943047,962,82,-1819,572,-198,13
8,18943057,960,72,-1803,496,-357,44
9,18943067,879,-4,-1743,543,-497,84
10,18943077,515,-223,-1955,506,-546,117
11,18943087,886,-113,-1823,517,-341,121
12,18943097,948,-68,-1845,452,-430,61
13,18943107,940,-20,-1815,347,-616,63
14,18943117,728,-9,-1829,275,-624,54
15,18943127,971,68,-1826,779,-320,-229
16,18943137,871,-35,-1779,775,-344,-254
17,18943147,920,18,-1774,642,-269,-351
18,18943157,963,22,-1801,540,-190,-308
19,18943167,832,-112,-1829,624,-355,-119
20,18943177,988,-83,-1850,599,-318,-73
21,18943187,998,-148,-1796,504,-461,57
22,18943197,947,2,-1792,282,-571,43
23,18943207,886,12,-1755,237,-649,56
24,18943217,927,21,-1750,191,-622,-10
25,18943227,958,58,-1741,154,-507,-256
26,18943224,959,58,-1741,154,-508,-143
27,18943234,910,8,-1717,191,-514,-185
28,18943244,903,1,-1741,218,-462,-200
29,18943254,921,-90,-1767,257,-381,-222
30,18943264,997,1,-1810,236,-332,-210
31,18943274,966,58,-1821,274,-392,-179
32,18943284,1022,77,-1843,331,-439,-74
33,18943294,923,-15,-1796,412,-558,-4
34,18943304,936,10,-1785,424,-575,30
35,18943314,930,-4,-1728,270,-559,1
36,18943324,883,-51,-1679,175,-521,-67
37,18943334,866,-28,-1694,-73,-357,-231
38,18943344,995,51,-1732,-162,-199,-323
39,18943354,1040,62,-1751,-194,-171,-404
40,18943364,1087,133,-1753,-121,-243,-377
41,18943374,1064,192,-1771,3,-364,-302
42,18943384,1041,218,-1810,217,-519,-185
43,18943394,922,117,-1789,493,-621,-65
44,18943404,935,20,-1818,582,-629,-35
45,18943414,971,58,-1802,540,-549,-59
46,18943424,1015,108,-1745,479,-554,-56
47,18943434,1084,99,-1739,563,-612,-23
48,18943444,1045,5,-1667,704,-812,121
49,18943454,1087,-15,-1637,609,-1002,234
50,18943464,1066,23,-1616,282,-1177,267
51,18943474,947,-19,-1658,54,-1301,0
52,18943471,948,-20,-1658,54,-1301,217
53,18943481,895,-70,-1725,-195,-1337,147
54,18943491,892,-42,-1791,-353,-1250,31
55,18943501,864,-29,-1838,-470,-1143,-99
56,18943511,962,18,-1901,-544,-1042,-134
57,18943521,903,47,-1927,-551,-996,-174
58,18943531,860,63,-1936,-465,-949,-193
59,18943541,1038,1148,-2097,-325,-843,-208
60,18943551,1400,-186,-1908,184,-441,-278
61,18943561,762,265,-1909,324,-530,-325
62,18943571,339,-3134,-5586,467,-379,-350
63,18943581,728,232,-1609,386,647,-581
64,18943591,844,124,-1734,58,-364,-342
65,18943601,902,139,-1846,-165,-74,-387
66,18943611,1146,111,-1605,-230,-39,-531
67,18943621,872,10,-1855,-184,-282,-399
68,18943631,900,295,-1779,207,68,-354
69,18943641,920,291,-1786,109,63,-272
70,18943651,907,286,-1808,192,8,-218
71,18943661,943,283,-1776,312,-18,-201
72,18943671,921,271,-1758,402,-41,-208
73,18943681,889,251,-1741,452,-57,-188
74,18943691,926,242,-1736,500,-58,-172
75,18943701,965,320,-1714,535,-41,-215
76,18943711,938,335,-1709,632,-54,-226
77,18943721,928,350,-1705,751,-78,-256
78,18943717,928,350,-1705,752,-79,-170
79,18943727,943,346,-1683,861,-110,-79
80,18943737,929,343,-1702,939,-136,-27
81,18943747,893,361,-1733,996,-148,-9
82,18943757,915,349,-1750,1079,-169,17
83,18943767,991,433,-1772,1195,-208,39
84,18943777,846,274,-1862,1434,-320,74
85,18943787,793,206,-1881,1587,-303,79
86,18943797,866,171,-1901,1683,-306,121
87,18943807,771,174,-1921,1733,-269,132
88,18943817,815,216,-1885,1824,-313,183
89,18943827,819,245,-1900,1808,-210,159
90,18943837,730,274,-1979,1965,-211,167
91,18943847,827,1672,-1867,2068,-81,204
92,18943857,836,-254,-2098,2422,515,-82
93,18943867,910,458,-2070,3584,360,404
94,18943877,721,399,-2076,3410,326,322
95,18943887,530,-634,-2352,3895,548,606
96,18943897,709,619,-1912,1812,751,1023
97,18943907,845,-70,-1877,4041,614,971
98,18943917,828,26,-1695,3966,651,1219
99,18943927,870,-126,-1594,4151,613,1415
100,18943937,949,-195,-1466,4175,567,1624
101,18943947,955,-364,-1464,4145,448,1826
102,18943957,1039,-861,-1347,3939,337,1915
103,18943967,861,-365,-1472,3426,233,1793
104,18943964,861,-365,-1472,3426,233,1964
105,18943974,861,-625,-1561,3342,282,1935
106,18943984,804,-732,-1340,2967,261,1891
107,18943994,948,-501,-1589,2610,356,1749
108,18944004,810,-787,-1428,2575,161,1746
109,18944014,972,-784,-1301,2414,40,1713
110,18944024,966,-892,-1290,2262,-45,1722
111,18944034,924,-951,-1277,2016,-269,1847
112,18944044,960,-942,-1296,1723,-413,1992
113,18944054,889,-884,-1304,1587,-750,2237
114,18944064,818,-905,-1285,1652,-956,2447
115,18944074,819,-1075,-1232,1864,-1120,2483
116,18944084,788,-1208,-1207,2092,-1288,2469
117,18944094,623,-1361,-1282,2118,-1494,2528
118,18944104,558,-1428,-1330,1991,-1479,2353
119,18944114,462,-1513,-1468,2034,-1443,2037
120,18944124,346,-1536,-1479,2200,-1373,1599
121,18944134,-2075,-1620,-1742,2623,-1512,998
122,18944144,1846,-1661,-1280,4436,-3020,-2953
123,18944154,116,-1673,-1158,3669,-1197,522
124,18944164,659,-1711,-1005,3225,-594,217
125,18944174,525,-1711,-1015,2800,-651,459
126,18944184,534,-1672,-1032,2253,-699,568
127,18944194,506,-1641,-993,1996,-674,606
128,18944204,517,-1674,-932,1981,-707,670
129,18944214,536,-1677,-853,2012,-884,512
130,18944211,536,-1677,-853,2012,-885,737
131,18944221,514,-1714,-824,2009,-1153,836
132,18944231,441,-1685,-856,1883,-1438,906
133,18944241,385,-1717,-901,1818,-1587,950
134,18944251,328,-1803,-941,1837,-1523,900
135,18944261,198,-1903,-924,1867,-1372,791
136,18944271,131,-1925,-941,1846,-1203,643
137,18944281,123,-1926,-923,1741,-1121,544
138,18944291,101,-1899,-884,1668,-1011,439
139,18944301,83,-1931,-856,1643,-911,359
140,18944311,124,-1857,-841,1510,-879,336
141,18944321,176,-1830,-847,1353,-880,320
142,18944331,174,-1806,-917,1180,-898,295
143,18944341,138,-1706,-1026,1034,-895,241
144,18944351,235,-1677,-1088,1057,-769,145
145,18944361,202,-1658,-1086,1217,-497,47
146,18944371,220,-1644,-1089,1167,-383,-4
147,18944381,284,-1598,-1098,1059,-312,-22
148,18944391,291,-1600,-1146,902,-281,15
149,18944401,250,-1613,-1198,756,-265,102
150,18944411,197,-1622,-1277,620,-255,170
151,18944421,204,-1628,-1358,568,-253,162
152,18944431,182,-1635,-1404,505,-229,114
153,18944441,145,-1655,-1427,385,-181,50
154,18944451,192,-1598,-1450,176,-143,-2
155,18944461,209,-1558,-1496,-80,-115,-256
156,18944457,209,-1558,-1496,-80,-115,-77
157,18944467,179,-1507,-1568,-351,-54,-127
158,18944477,217,-1444,-1576,-534,65,-167
159,18944487,265,-1371,-1610,-532,129,-159
160,18944497,271,-1317,-1620,-365,98,-181
161,18944507,268,-1295,-1629,-237,45,-156
162,18944517,291,-1221,-1636,-60,-11,5
163,18944527,306,-1200,-1628,105,-75,196
164,18944537,274,-1244,-1592,158,-128,380
165,18944547,245,-1288,-1525,-26,-89,494
166,18944557,262,-1282,-1474,-332,5,551
167,18944567,247,-1219,-1460,-737,91,610
168,18944577,192,-1179,-1419,-1060,105,719
169,18944587,191,-1099,-1420,-1308,21,810
170,18944597,170,-996,-1448,-1467,-135,865
171,18944607,173,-939,-1417,-1407,-246,864
172,18944617,91,-868,-1503,-1412,-452,1000
173,18944627,58,-936,-1565,-1206,-589,1073
174,18944637,-56,-1057,-1633,-946,-611,1096
175,18944647,-223,-1233,-1694,-556,-602,1014
176,18944657,-300,-1313,-1789,-180,-659,836
177,18944667,-335,-1377,-1879,-5,-629,486
178,18944677,-422,-1334,-1914,60,-470,282
179,18944687,-353,-1286,-1867,98,-249,107
180,18944697,-303,-1188,-1809,121,-93,75
181,18944707,-293,-1138,-1742,132,-46,0
182,18944704,-292,-1139,-1742,132,-46,148
183,18944714,-310,-1107,-1709,128,-61,242
184,18944724,-287,-1112,-1691,126,-104,338
185,18944734,-302,-1105,-1679,172,-188,478
186,18944744,-310,-1152,-1687,297,-290,580
187,18944754,-379,-1194,-1691,464,-434,710
188,18944764,-372,-1225,-1724,624,-523,653
189,18944774,-378,-1226,-1744,726,-542,463
190,18944784,-380,-1204,-1753,804,-507,323
191,18944794,-339,-1177,-1734,890,-483,218
192,18944804,-318,-1155,-1758,936,-485,152
193,18944814,-323,-1123,-1766,927,-461,81
194,18944824,-281,-1096,-1752,920,-396,-3
195,18944834,-234,-1051,-1761,907,-327,-32
196,18944844,-237,-1022,-1736,910,-275,-58
197,18944854,-212,-1008,-1725,925,-243,-81
198,18944864,-207,-976,-1705,945,-278,-5
199,18944874,-167,-945,-1721,950,-301,-19
200,18944884,-202,-938,-1745,916,-303,10
201,18944894,-190,-950,-1739,943,-299,44
202,18944904,-159,-955,-1752,964,-322,53
203,18944914,-184,-967,-1769,944,-348,76
204,18944924,-230,-990,-1832,924,-359,91
205,18944934,-236,-961,-1861,901,-362,71
206,18944944,-197,-991,-1874,980,-316,17
207,18944954,-234,-962,-1877,1071,-255,0
208,18944951,-234,-963,-1877,1072,-255,26
209,18944961,-219,-976,-1855,1162,-216,8
210,18944971,-167,-961,-1830,1190,-154,-43
211,18944981,-189,-963,-1782,1217,-115,-30
212,18944991,-192,-959,-1742,1228,-110,-29
213,18945001,-151,-937,-1744,1192,-105,-42
214,18945011,-126,-946,-1735,1163,-121,-3
215,18945021,-139,-952,-1752,1175,-174,44
216,18945031,-124,-961,-1748,1201,-241,50
217,18945041,-106,-968,-1734,1253,-261,22
218,18945051,-103,-991,-1737,1267,-268,6
219,18945061,-128,-1054,-1744,1246,-298,49
220,18945071,-141,-1214,-1784,1265,-350,119
221,18945081,-206,-1096,-1817,1022,-417,189
222,18945091,-173,-1033,-1841,971,-418,-55
223,18945101,-210,-1035,-1837,1087,-352,-94
224,18945111,-176,-1008,-1798,1171,-189,-101
225,18945121,-136,-987,-1721,1242,-42,-199
226,18945131,-121,-1043,-1651,1271,4,-203
227,18945141,-91,-1039,-1645,1168,-39,-165
228,18945151,-75,-1020,-1651,1082,-108,-134
229,18945161,-103,-1011,-1668,1025,-192,-72
230,18945171,-107,-1040,-1699,1018,-232,-13
231,18945181,-96,-1078,-1725,1046,-271,51
232,18945191,-97,-1062,-1729,1067,-320,82
233,18945201,-119,-1031,-1728,1056,-350,0
234,18945198,-119,-1032,-1728,1057,-350,89
235,18945208,-83,-1023,-1725,1036,-322,70
236,18945218,-78,-1025,-1692,1029,-266,97
237,18945228,-147,-1092,-1687,1027,-217,155
238,18945238,-194,-1118,-1686,974,-177,182
239,18945248,-141,-1135,-1709,946,-135,150
240,18945258,-165,-1115,-1720,941,-103,72
241,18945268,-148,-1107,-1703,1011,-83,32
242,18945278,-101,-1082,-1723,1037,-89,-9
243,18945288,-100,-1044,-1771,1051,-112,-30
244,18945298,-98,-1034,-1677,1067,-92,-38
245,18945308,-102,-1002,-1756,1060,-118,46
246,18945318,-61,-1030,-1735,1035,-113,118
247,18945328,-121,-1069,-1725,1136,-130,193
248,18945338,-180,-1082,-1741,1066,-155,204
249,18945348,-147,-1045,-1769,1044,-171,119
250,18945358,-145,-1078,-1753,1082,-179,100
251,18945368,-174,-1079,-1763,1105,-171,119
252,18945378,-166,-1017,-1753,1163,-130,44
253,18945388,-88,-1012,-1712,1259,-74,-69
254,18945398,-99,-1002,-1694,1289,-57,-77
255,18945408,-126,-1022,-1691,1254,-71,-43
256,18945418,-115,-1014,-1692,1231,-76,-1
257,18945428,-106,-1032,-1691,1166,-94,25
258,18945438,-133,-1029,-1708,1093,-112,45
259,18945448,-126,-1058,-1672,1076,-121,0
260,18945444,-125,-1059,-1672,1077,-121,64
261,18945454,-100,-1030,-1654,1042,-138,51
262,18945464,-100,-1070,-1679,1007,-172,30
263,18945474,-102,-1113,-1659,1042,-223,45
264,18945484,-121,-1134,-1627,1029,-227,63
265,18945494,-52,-1124,-1675,1020,-211,-2
266,18945504,-64,-1092,-1656,1034,-267,-76
267,18945514,-115,-1081,-1685,1092,-269,18
268,18945524,-92,-1135,-1697,1179,-267,17
269,18945534,-111,-1141,-1649,1147,-279,1
270,18945544,-107,-1059,-1737,1119,-260,-53
271,18945554,-30,-1153,-1694,1187,-351,-101
272,18945564,-73,-1100,-1686,1145,-284,-61
273,18945574,-67,-1112,-1659,1187,-270,-119
274,18945584,-85,-1092,-1663,1124,-303,-119
275,18945594,-74,-1106,-1694,1086,-299,-123
276,18945604,-123,-1151,-1703,1048,-297,-44
277,18945614,-154,-1128,-1708,1042,-278,-70
278,18945624,-109,-1114,-1711,1058,-242,-164
279,18945634,-55,-1094,-1748,1039,-207,-168
280,18945644,-57,-1218,-1689,1008,-210,-102
281,18945654,-142,-1101,-1653,1050,-118,-95
282,18945664,-57,-1104,-1562,1112,-125,-161
283,18945674,-100,-1074,-1693,1061,-146,-136
284,18945684,-45,-1112,-1680,1137,-290,-165
285,18945694,-81,-1040,-1782,1020,-298,-256
286,18945691,-81,-1040,-1782,1020,-299,-135
287,18945701,-77,-1086,-1759,1073,-287,-57
288,18945711,-184,-1009,-1749,1171,-230,-79
289,18945721,-28,-1058,-1719,1224,-188,-176
290,18945731,-49,-1182,-1658,1227,-192,1
291,18945741,-26,-1177,-1599,1181,-173,-53
292,18945751,-80,-1204,-1590,1099,-205,-37
293,18945761,-55,-1193,-1590,1101,-205,-72
294,18945771,-48,-1170,-1607,1054,-230,-81
295,18945781,-72,-1139,-1625,968,-260,-117
296,18945791,-72,-1130,-1652,911,-283,-99
297,18945801,-45,-1126,-1671,882,-297,-97
298,18945811,-79,-1108,-1681,867,-307,-104
299,18945821,-112,-1077,-1684,854,-320,-102
300,18945831,-92,-1058,-1705,864,-326,-95
301,18945841,-83,-1040,-1630,903,-312,-103
302,18945851,-98,-1097,-1703,1029,-323,-128
303,18945861,-120,-1076,-1690,929,-313,-93
304,18945871,-83,-1095,-1685,1037,-290,-131
305,18945881,-107,-1090,-1691,1010,-308,-105
306,18945891,-124,-1102,-1680,1023,-310,-119
307,18945901,-101,-1102,-1679,1020,-320,-108
308,18945911,-85,-1110,-1668,1026,-324,-103
309,18945921,-107,-1115,-1688,1028,-328,-110
310,18945931,-118,-1114,-1667,1044,-323,-112
311,18945941,-65,-1101,-1678,1052,-311,-256
312,18945937,-65,-1102,-1678,1052,-312,-121
313,18945947,-57,-1111,-1676,1053,-313,-122
314,18945957,-71,-1118,-1689,1051,-309,-114
315,18945967,-49,-1119,-1698,1054,-299,-113
316,18945977,-42,-1113,-1688,1056,-304,-114
317,18945987,-73,-1114,-1686,1058,-307,-109
318,18945997,-80,-1114,-1698,1062,-308,-101
319,18946007,-58,-1112,-1679,1084,-292,-102
320,18946017,-89,-1132,-1658,1088,-277,-94
321,18946027,-98,-1144,-1656,1086,-272,-85
322,18946037,-60,-1140,-1659,1073,-273,-77
323,18946047,-60,-1135,-1654,1065,-278,-84
324,18946057,-81,-1135,-1672,1049,-271,-89
325,18946067,-79,-1135,-1675,1042,-261,-81
326,18946077,-76,-1123,-1670,1045,-255,-85
327,18946087,-69,-1124,-1676,1043,-253,-92
328,18946097,-96,-1130,-1676,1040,-260,-88
329,18946107,-65,-1113,-1669,1045,-268,-80
330,18946117,-70,-1120,-1679,1053,-267,-75
331,18946127,-104,-1132,-1672,1057,-251,-81
332,18946137,-87,-1141,-1662,1063,-243,-82
333,18946147,-49,-1146,-1659,1063,-245,-85
334,18946157,-67,-1141,-1648,1052,-241,-94
335,18946167,-86,-1154,-1657,1040,-243,-89
336,18946177,-53,-1121,-1657,1029,-245,-85
337,18946187,-50,-1125,-1662,1025,-250,-256
338,18946184,-50,-1125,-1662,1026,-250,-85
339,18946194,-76,-1127,-1667,1026,-252,-87
340,18946204,-65,-1120,-1679,1021,-253,-87
341,18946214,-40,-1113,-1677,1022,-253,-88
342,18946224,-50,-1135,-1686,1031,-242,-84
343,18946234,-66,-1135,-1670,1044,-231,-93
344,18946244,-34,-1113,-1660,1046,-238,-101
345,18946254,-34,-1117,-1660,1038,-256,-94
346,18946264,-68,-1137,-1657,1029,-267,-83
347,18946274,-75,-1124,-1673,1027,-272,-82
348,18946284,-50,-1132,-1667,1028,-274,-89
349,18946294,-61,-1125,-1651,1037,-268,-90
350,18946304,-72,-1140,-1655,1034,-264,-91
351,18946314,-51,-1122,-1670,1022,-275,-93
352,18946324,-44,-1129,-1668,1014,-287,-83
353,18946334,-65,-1137,-1667,1017,-280,-94
354,18946344,-56,-1126,-1674,1017,-280,-95
355,18946354,-42,-1131,-1684,1039,-277,-93
356,18946364,-38,-1129,-1668,1052,-269,-97
357,18946374,-71,-1140,-1660,1062,-261,-101
358,18946384,-38,-1134,-1655,1065,-257,-102
359,18946394,-31,-1125,-1668,1055,-258,-102
360,18946404,-57,-1155,-1668,1057,-263,-92
361,18946414,-70,-1145,-1673,1052,-271,-95
362,18946424,-45,-1149,-1668,1056,-267,-108
363,18946434,-62,-1150,-1674,1071,-255,-256
364,18946431,-62,-1151,-1674,1072,-255,-124
365,18946441,-82,-1144,-1665,1100,-249,-156
366,18946451,-58,-1141,-1658,1117,-247,-178
367,18946461,-37,-1132,-1665,1129,-258,-192
368,18946471,-51,-1147,-1675,1125,-268,-191
369,18946481,-52,-1154,-1676,1124,-263,-181
370,18946491,-20,-1153,-1659,1127,-254,-176
371,18946501,-19,-1153,-1643,1134,-246,-178
372,18946511,-39,-1140,-1652,1130,-248,-166
373,18946521,-2,-1140,-1641,1115,-251,-152
374,18946531,-14,-1135,-1651,1111,-248,-132
375,18946541,-60,-1159,-1660,1101,-253,-107
376,18946551,-62,-1166,-1647,1095,-261,-94
377,18946561,-80,-1138,-1588,1105,-259,-103
378,18946571,-46,-1213,-1590,1145,-238,-118
379,18946581,-128,-1351,-1519,1170,-253,-138
380,18946591,-49,-1355,-1449,1199,-218,-160
381,18946601,10,-1292,-1498,1168,-185,-182
382,18946611,-38,-1208,-1502,908,-212,-258
383,18946621,-15,-1068,-1659,797,-176,-359
384,18946631,-1,-1202,-1591,822,-253,-345
385,18946641,97,-1145,-1748,975,-251,-465
386,18946651,-30,-1022,-1969,595,-373,-244
387,18946661,122,-945,-1935,815,-429,-266
388,18946671,77,-837,-2004,836,-286,-241
389,18946681,2,-970,-1825,1009,-197,-256
390,18946678,3,-971,-1825,1010,-198,-36
391,18946688,-40,-1144,-1682,1299,-139,60
392,18946698,-5,-1255,-1557,1433,-64,68
393,18946708,-19,-1270,-1497,1388,-124,10
394,18946718,-2,-1245,-1514,1257,-205,-89
395,18946728,2,-1205,-1568,1104,-260,-82
396,18946738,24,-1194,-1610,1029,-280,-50
397,18946748,-25,-1177,-1666,994,-280,-62
398,18946758,-19,-1152,-1686,991,-277,-75
399,18946768,16,-1137,-1679,1019,-268,-81
400,18946778,-7,-1134,-1658,1045,-265,-80
401,18946788,-31,-1157,-1653,1059,-268,-71
402,18946798,4,-1158,-1664,1077,-258,-56
403,18946808,12,-1175,-1638,1087,-247,-55
404,18946818,-17,-1177,-1625,1087,-246,-69
405,18946828,-6,-1190,-1635,1077,-252,-72
406,18946838,12,-1183,-1636,1059,-258,-68
407,18946848,-12,-1177,-1639,1049,-254,-77
408,18946858,-21,-1173,-1646,1045,-253,-76
409,18946868,12,-1154,-1664,1043,-262,-76
410,18946878,-6,-1150,-1646,1047,-267,-78
411,18946888,-17,-1160,-1641,1059,-261,-82
412,18946898,-13,-1161,-1643,1066,-259,-85
413,18946908,14,-1175,-1637,1063,-269,-79
414,18946918,0,-1169,-1643,1057,-277,-80
415,18946928,-28,-1164,-1642,1055,-277,-256
416,18946924,-28,-1165,-1642,1056,-278,-85
417,18946934,9,-1159,-1647,1061,-274,-87
418,18946944,19,-1164,-1647,1065,-266,-92
419,18946954,-31,-1166,-1643,1066,-264,-87
420,18946964,-8,-1182,-1632,1070,-261,-83
421,18946974,14,-1169,-1640,1069,-263,-84
422,18946984,6,-1172,-1632,1066,-267,-80
423,18946994,-15,-1192,-1631,1061,-267,-74
424,18947004,12,-1173,-1624,1056,-267,-76
425,18947014,17,-1178,-1624,1041,-271,-68
426,18947024,2,-1192,-1627,1031,-279,-66
427,18947034,-4,-1174,-1653,1024,-278,-70
428,18947044,27,-1171,-1634,1021,-281,-69
429,18947054,2,-1155,-1642,1026,-281,-53
430,18947064,-15,-1161,-1652,1029,-277,-50
431,18947074,7,-1164,-1634,1041,-276,-47
432,18947084,12,-1167,-1645,1045,-272,-44
433,18947094,-19,-1171,-1643,1046,-267,-46
434,18947104,-23,-1173,-1638,1055,-260,-52
435,18947114,24,-1179,-1631,1055,-262,-55
436,18947124,-1,-1190,-1634,1047,-270,-50
437,18947134,-20,-1184,-1637,1042,-272,-52
438,18947144,9,-1186,-1633,1036,-270,-61
439,18947154,16,-1165,-1634,1029,-273,-66
440,18947164,-12,-1177,-1632,1021,-276,-63
441,18947174,-21,-1174,-1639,1018,-278,-256
442,18947171,-20,-1174,-1639,1019,-278,-63
443,18947181,18,-1163,-1647,1017,-278,-64
444,18947191,2,-1182,-1645,1019,-285,-54
445,18947201,-21,-1193,-1645,1019,-285,-51
446,18947211,2,-1167,-1646,1025,-282,-59
447,18947221,6,-1159,-1644,1032,-281,-63
448,18947231,-19,-1174,-1649,1036,-276,-60
449,18947241,-20,-1183,-1647,1037,-269,-59
450,18947251,6,-1181,-1635,1032,-274,-65
451,18947261,1,-1185,-1642,1020,-283,-70
452,18947271,-23,-1172,-1641,1014,-285,-72
453,18947281,1,-1158,-1655,1016,-283,-75
454,18947291,10,-1155,-1651,1025,-276,-76
455,18947301,-29,-1159,-1642,1033,-273,-78
456,18947311,-10,-1167,-1643,1033,-280,-79
457,18947321,13,-1150,-1654,1031,-288,-76
458,18947331,-1,-1169,-1638,1028,-288,-72
459,18947341,-21,-1186,-1650,1028,-287,-77
460,18947351,9,-1176,-1641,1023,-291,-82
461,18947361,9,-1172,-1653,1020,-296,-75
462,18947371,-32,-1164,-1643,1022,-296,-86
463,18947381,-1,-1165,-1643,1018,-291,-94
464,18947391,4,-1175,-1642,1010,-289,-78
465,18947401,-9,-1177,-1637,998,-296,-75
466,18947411,-27,-1172,-1633,989,-298,-81
467,18947421,-2,-1161,-1649,983,-299,-256
468,18947418,-2,-1161,-1649,984,-300,-76
469,18947428,-9,-1164,-1642,981,-304,-73
470,18947438,-34,-1170,-1645,988,-301,-69
471,18947448,-13,-1158,-1650,1000,-290,-70
472,18947458,11,-1152,-1642,997,-291,-65
473,18947468,-7,-1157,-1642,1007,-289,-65
474,18947478,-26,-1162,-1654,1009,-284,-63
475,18947488,-7,-1152,-1663,1017,-276,-62
476,18947498,6,-1164,-1633,1018,-269,-53
477,18947508,-22,-1171,-1632,1017,-269,-46
478,18947518,-16,-1173,-1637,1006,-272,-50
479,18947528,23,-1157,-1651,999,-272,-53
480,18947538,-20,-1165,-1668,995,-276,-64
481,18947548,-38,-1165,-1691,999,-277,-69
482,18947558,-26,-1151,-1669,1010,-272,-81
483,18947568,1,-1141,-1673,1035,-257,-125
484,18947578,-22,-1148,-1660,1054,-254,-134
485,18947588,-18,-1138,-1650,1047,-268,-123
486,18947598,7,-1139,-1669,1041,-280,-122
487,18947608,9,-1055,-1667,1009,-277,-101
488,18947618,-13,-1195,-1654,954,-307,-106
489,18947628,-1,-1157,-1628,1088,-249,-117
490,18947638,26,-1191,-1650,1008,-287,-88
491,18947648,-42,-1238,-1672,990,-296,-87
492,18947658,-51,-1233,-1709,965,-312,-112
493,18947668,-30,-1197,-1730,984,-306,-256
494,18947665,-30,-1198,-1730,985,-307,-246
495,18947675,-27,-1220,-1712,1035,-283,-350
496,18947685,-52,-1204,-1709,1036,-283,-412
497,18947695,74,-1115,-1754,1041,-308,-474
498,18947705,18,-1127,-1674,1042,-422,-387
499,18947715,-32,-1149,-1678,980,-380,-280
500,18947725,-49,-1257,-1684,1027,-259,-236
501,18947735,235,-1178,-1624,1004,-213,-6
502,18947745,-396,-1733,-1534,1355,-573,686
503,18947755,-238,-1610,-1866,1499,-523,-331
504,18947765,-310,-1390,-1777,808,-680,-567
505,18947775,-249,-1579,-1585,1431,-595,-475
506,18947785,-322,-1748,-1637,1561,-525,-682
507,18947795,-216,-1557,-1596,1268,-715,-863
508,18947805,-20,-1306,-1533,1116,-773,-1231
509,18947815,-102,-1150,-1608,595,-727,-1275
510,18947825,41,-1056,-1595,702,-598,-1315
511,18947835,-163,-1093,-1610,790,-675,-1031
512,18947845,-27,-1161,-1552,1348,-808,-919
513,18947855,-76,-1053,-1733,1349,-858,-1048
514,18947865,-242,-1250,-1655,1302,-929,-1102
515,18947875,-147,-1544,-1293,1869,-852,-794
516,18947885,-108,-1665,-1069,2151,-654,-750
517,18947895,-76,-1598,-1199,1969,-621,-1243
518,18947905,-32,-1524,-1296,1623,-916,-1295
519,18947915,-27,-1522,-1321,1567,-1092,-1281
520,18947911,-27,-1522,-1321,1567,-1093,-1145
521,18947921,-118,-1462,-1423,1361,-1069,-1140
522,18947931,-66,-1413,-1467,1208,-966,-1231
523,18947941,-54,-1348,-1480,1162,-895,-1257
524,18947951,-22,-1291,-1487,1078,-865,-1271
525,18947961,0,-1118,-1443,986,-782,-1276
526,18947971,106,-1160,-1432,1041,-751,-1269
527,18947981,126,-1147,-1441,1069,-714,-1237
528,18947991,96,-1175,-1463,1129,-719,-1165
529,18948001,105,-1176,-1512,1163,-752,-1158
530,18948011,120,-1180,-1554,1193,-793,-1188
531,18948021,95,-1235,-1530,1208,-822,-1201
532,18948031,87,-1182,-1675,1184,-795,-1245
533,18948041,181,-1222,-1487,1277,-651,-1343
534,18948051,113,-1141,-1518,1129,-603,-1232
535,18948061,178,-1170,-1483,1145,-510,-1252
536,18948071,207,-1098,-1523,1001,-574,-1180
537,18948081,273,-1053,-1567,885,-632,-1140
538,18948091,242,-1074,-1622,850,-597,-1068
539,18948101,232,-984,-1651,866,-511,-996
540,18948111,234,-1062,-1641,930,-478,-974
541,18948121,223,-1072,-1623,1050,-450,-973
542,18948131,220,-1051,-1596,1080,-458,-958
543,18948141,255,-1022,-1551,1059,-475,-957
544,18948151,309,-1041,-1531,995,-507,-893
545,18948161,266,-1022,-1560,894,-556,-1024
546,18948158,266,-1022,-1560,895,-556,-787
547,18948168,246,-1021,-1549,830,-615,-727
548,18948178,238,-995,-1615,758,-655,-685
549,18948188,244,-961,-1664,682,-694,-617
550,18948198,204,-950,-1698,687,-670,-561
551,18948208,190,-950,-1712,697,-574,-509
552,18948218,232,-956,-1699,716,-486,-457
553,18948228,215,-949,-1696,669,-408,-408
554,18948238,188,-926,-1701,623,-358,-369
555,18948248,183,-930,-1687,606,-366,-307
556,18948258,193,-935,-1698,642,-401,-267
557,18948268,157,-967,-1728,599,-426,-238
558,18948278,152,-938,-1788,597,-423,-192
559,18948288,184,-852,-1886,618,-398,-165
560,18948298,146,-835,-1918,718,-296,-78
561,18948308,133,-914,-1874,872,-156,122
562,18948318,176,-986,-1792,933,-18,309
563,18948328,220,-1051,-1702,845,132,384
564,18948338,257,-1086,-1612,758,214,463
565,18948348,355,-1010,-1592,613,151,540
566,18948358,436,-871,-1647,582,-33,618
567,18948368,484,-953,-1656,753,-268,799
568,18948378,501,-800,-1555,823,-473,1049
569,18948388,600,-939,-1557,1070,-804,1240
570,18948398,546,-909,-1608,1071,-1027,1283
571,18948408,414,-1009,-1657,1127,-1061,1281
572,18948404,414,-1009,-1657,1127,-1062,1315
573,18948414,296,-1130,-1553,1383,-948,1221
574,18948424,249,-1148,-1673,1429,-896,1101
575,18948434,-560,-2170,-2154,1409,-881,1009
576,18948444,-205,-1258,-2008,504,-694,701
577,18948454,-290,-1685,-2013,1236,-765,464
578,18948464,-93,-1445,-1883,988,-457,238
579,18948474,67,-1387,-1818,893,-314,-43
580,18948484,211,-1257,-1784,911,-194,-98
581,18948494,329,-1274,-1662,1081,-113,-245
582,18948504,451,-1211,-1499,1217,-33,-414
583,18948514,496,-1174,-1366,1346,-37,-649
584,18948524,487,-1154,-1312,1472,-149,-884
585,18948534,439,-1111,-1289,1466,-280,-1099
586,18948544,316,-1142,-1320,1410,-350,-1192
587,18948554,195,-1128,-1343,1341,-312,-1281
588,18948564,157,-1071,-1388,1126,-292,-1323
589,18948574,92,-1046,-1485,854,-280,-1287
590,18948584,53,-1011,-1544,501,-219,-1195
591,18948594,12,-999,-1658,85,-69,-1045
592,18948604,-60,-1005,-1803,-243,73,-821
593,18948614,-210,-1066,-2031,-399,98,-599
594,18948624,-318,-1173,-2222,-323,-39,-415
595,18948634,-391,-1171,-2351,-136,-208,-250
596,18948644,-465,-1133,-2368,124,-278,-137
597,18948654,-385,-1138,-2226,581,-259,-256
598,18948651,-385,-1138,-2226,582,-259,-132
599,18948661,-217,-1010,-2020,952,-199,-159
600,18948671,-80,-1150,-1793,1549,-73,-347
601,18948681,-75,-1143,-1823,1519,-49,-377
602,18948691,12,-1056,-1839,1222,-177,-178
603,18948701,-61,-896,-1812,776,-228,138
604,18948711,39,-905,-1877,1077,-114,180
605,18948721,-9,-862,-1927,1188,-132,532
606,18948731,46,-736,-1932,1209,-149,849
607,18948741,117,-801,-1884,1391,-92,1191
608,18948751,44,-850,-1765,1516,-4,1671
609,18948761,191,-1200,-1572,1960,68,1794
610,18948771,300,-1232,-1386,1792,8,1729
611,18948781,474,-1180,-1258,1453,-81,1361
612,18948791,676,-1319,-1185,1313,-190,926
613,18948801,756,-1083,-1167,975,-254,676
614,18948811,789,-1224,-1275,812,-407,450
615,18948821,467,-1439,-1333,897,-554,475
616,18948831,239,-1501,-1466,659,-665,352
617,18948841,328,-1232,-1338,399,-722,109
618,18948851,338,-1499,-1438,612,-603,-378
619,18948861,236,-1471,-1415,471,-418,-599
620,18948871,279,-1408,-1363,455,-271,-1133
621,18948881,310,-1306,-1285,354,-300,-1438
622,18948891,211,-1263,-1281,468,-544,-1776
623,18948901,153,-1107,-1401,529,-874,-2305
624,18948898,154,-1108,-1401,529,-874,-2188
625,18948908,119,-939,-1585,685,-1186,-2338
626,18948918,-14,-831,-1865,710,-1417,-2277
627,18948928,-162,-699,-2134,661,-1452,-1939
628,18948938,-304,-711,-2340,726,-1282,-1531
629,18948948,-361,-727,-2382,807,-1051,-1126
630,18948958,-380,-782,-2336,912,-749,-869
631,18948968,-339,-731,-2261,886,-489,-741
632,18948978,-275,-779,-2136,837,-316,-556
633,18948988,-250,-897,-1990,950,-202,-326
634,18948998,-218,-1018,-1933,917,-148,-188
635,18949008,-177,-1252,-1965,783,-85,-52
636,18949018,-236,-1087,-1920,577,-31,164
637,18949028,-130,-895,-2009,446,127,207
638,18949038,-117,-878,-1935,514,227,499
639,18949048,-89,-816,-1893,890,278,781
640,18949058,-22,-802,-1860,1145,178,944
641,18949068,115,-817,-1661,1506,43,1178
642,18949078,373,-945,-1330,1928,-81,1239
643,18949088,767,-927,-1118,1950,-191,1019
644,18949098,877,-788,-1016,1748,-381,690
645,18949108,858,-1196,-1252,1693,-842,360
646,18949118,540,-819,-1585,636,-1038,282
647,18949128,244,-1174,-1945,773,-1270,235
648,18949138,-96,-1261,-1965,792,-1126,543
649,18949148,-118,-1393,-1900,870,-779,256
650,18949144,-118,-1394,-1900,871,-780,275
651,18949154,83,-1378,-1688,1051,-381,-182
652,18949164,339,-1162,-1365,1104,-20,-662
653,18949174,387,-1167,-1362,1113,108,-1021
654,18949184,407,-955,-1419,636,-61,-995
655,18949194,335,-815,-1485,478,-225,-1100
656,18949204,239,-868,-1662,544,-335,-1006
657,18949214,133,-775,-1839,395,-362,-801
658,18949224,56,-743,-1984,398,-315,-600
659,18949234,-52,-824,-2083,560,-231,-360
660,18949244,-153,-855,-2091,607,-104,-118
661,18949254,-252,-1011,-2080,737,-10,88
662,18949264,-231,-1044,-2010,913,-44,197
663,18949274,-148,-963,-1950,882,-76,107
664,18949284,-77,-936,-1896,910,-39,79
665,18949294,-67,-994,-1821,996,-9,138
666,18949304,-145,-981,-1846,1013,-45,188
667,18949314,-158,-989,-1941,1056,-124,161
668,18949324,-154,-1063,-2086,1048,-104,85
669,18949334,-264,-1191,-2091,1051,-15,177
670,18949344,-339,-1390,-1911,1267,12,198
671,18949354,-188,-1312,-1765,1214,-1,-201
672,18949364,-20,-1069,-1763,940,-47,-696
673,18949374,116,-1002,-1558,962,-11,-893
674,18949384,252,-906,-1463,1049,-47,-883
675,18949394,413,-791,-1385,1044,-207,-1024
676,18949391,414,-791,-1385,1045,-208,-874
677,18949401,487,-687,-1358,1058,-400,-877
678,18949411,506,-595,-1406,1093,-672,-653
679,18949421,541,-618,-1467,1320,-984,-350
680,18949431,506,-629,-1513,1462,-1284,-70
681,18949441,373,-590,-1621,1575,-1540,170
682,18949451,451,-864,-1966,1423,-1632,288
683,18949461,-151,-795,-2346,-334,-1346,579
684,18949471,-39,-951,-2186,872,-802,155
685,18949481,-53,-1042,-1968,1034,-394,114
686,18949491,109,-1061,-1781,1199,-116,-90
687,18949501,123,-1097,-1696,1238,-122,-125
688,18949511,250,-1056,-1627,1242,-205,-187
689,18949521,387,-1098,-1491,1254,-180,-294
690,18949531,437,-1051,-1480,1017,-116,-344
691,18949541,314,-1032,-1627,735,-192,-343
692,18949551,443,-535,-1526,388,-329,-345
693,18949561,309,-729,-1644,1022,-272,-656
694,18949571,312,-602,-1824,364,-297,-258
695,18949581,278,-671,-1779,426,-156,-99
696,18949591,261,-643,-1761,413,52,75
697,18949601,307,-516,-1753,304,280,116
698,18949611,232,-480,-1853,360,563,94
699,18949621,97,-572,-1946,403,744,203
700,18949631,4,-701,-1998,553,831,320
701,18949641,-107,-986,-1993,780,880,256
702,18949638,-107,-987,-1993,781,880,364
703,18949648,-318,-1215,-2109,899,780,416
704,18949658,-366,-1324,-2132,988,414,459
705,18949668,-292,-1294,-2103,1052,105,224
706,18949678,-313,-1383,-2090,1205,-34,15
707,18949688,-332,-1300,-1952,1427,-119,-117
708,18949698,-187,-1314,-1973,1453,-127,-429
709,18949708,-228,-1406,-2050,1232,-156,-526
710,18949718,-262,-1165,-2006,841,-244,-369
711,18949728,-221,-1100,-1900,851,-370,-365
712,18949738,23,-868,-1722,1052,-314,-854
713,18949748,247,-723,-1590,1190,-240,-1076
714,18949758,370,-626,-1523,1176,-249,-902
715,18949768,493,-429,-1472,1105,-397,-626
716,18949778,592,-403,-1393,1392,-707,-398
717,18949788,655,-425,-1344,1785,-1064,-175
718,18949798,739,-442,-1426,1864,-1460,4
719,18949808,870,-239,-1486,1762,-1723,274
720,18949818,709,-1217,-2017,1771,-1804,374
721,18949828,164,-500,-2210,-209,-1288,753
722,18949838,173,-963,-2255,745,-920,640
723,18949848,78,-998,-2065,1042,-224,298
724,18949858,162,-571,-1671,1132,133,40
725,18949868,542,-1162,-1491,1605,331,-371
726,18949878,192,-1099,-1496,1154,320,-140
727,18949888,153,-1128,-1628,828,180,-256
728,18949885,153,-1129,-1628,829,180,-80
729,18949895,24,-1149,-1787,611,9,-64
730,18949905,-44,-1080,-1938,553,-92,-37
731,18949915,9,-1016,-1964,735,-71,-208
732,18949925,-14,-943,-1967,913,46,-411
733,18949935,22,-880,-1873,1123,165,-458
734,18949945,114,-833,-1825,1258,141,-499
735,18949955,106,-765,-1803,1244,-30,-437
736,18949965,72,-753,-1808,1322,-196,-346
737,18949975,98,-829,-1792,1401,-326,-221
738,18949985,84,-925,-1790,1473,-379,-143
739,18949995,63,-984,-1746,1485,-433,-90
740,18950005,56,-1048,-1737,1473,-509,-63
741,18950015,79,-1055,-1682,1395,-607,17
742,18950025,129,-1148,-1691,1329,-654,22
743,18950035,-95,-1172,-1877,1121,-649,32
744,18950045,389,-944,-1778,809,-766,90
745,18950055,65,-1172,-1869,750,-693,167
746,18950065,-33,-1035,-1850,898,-425,-52
747,18950075,71,-978,-1725,875,-383,7
748,18950085,117,-955,-1680,933,-367,5
749,18950095,180,-925,-1639,921,-491,-32
750,18950105,191,-872,-1677,747,-592,-118
751,18950115,226,-865,-1711,673,-647,-80
752,18950125,223,-815,-1749,629,-670,-94
753,18950135,182,-837,-1774,576,-678,-256
754,18950131,183,-838,-1774,577,-678,-107
755,18950141,104,-837,-1866,584,-659,-93
756,18950151,151,-829,-1895,711,-676,-101
757,18950161,72,-829,-1931,750,-650,-109
758,18950171,53,-901,-1905,877,-582,-83
759,18950181,123,-861,-1858,911,-497,-88
760,18950191,187,-841,-1796,863,-425,-128
761,18950201,215,-787,-1763,776,-346,-156
762,18950211,225,-763,-1760,711,-333,-136
763,18950221,259,-755,-1780,765,-367,-132
764,18950231,179,-722,-1867,769,-408,-110
765,18950241,106,-726,-1968,778,-338,-127
766,18950251,107,-716,-1954,921,-147,-156
767,18950261,135,-801,-1873,1115,24,-190
768,18950271,53,-846,-1858,1091,82,-144
769,18950281,47,-812,-1877,966,98,-135
770,18950291,67,-912,-1895,887,152,-116
771,18950301,98,-911,-1845,823,312,-159
772,18950311,136,-863,-1831,636,455,-223
773,18950321,245,-724,-1802,533,518,-333
774,18950331,290,-711,-1755,629,488,-404
775,18950341,283,-702,-1776,696,403,-409
776,18950351,369,-657,-1744,750,367,-436
777,18950361,407,-630,-1721,868,319,-443
778,18950371,376,-638,-1720,968,209,-423
779,18950381,300,-705,-1745,1068,48,-512
780,18950378,301,-706,-1745,1069,47,-306
781,18950388,293,-734,-1770,1139,-140,-182
782,18950398,251,-754,-1793,1135,-284,-85
783,18950408,204,-783,-1816,1165,-377,11
784,18950418,172,-864,-1817,1306,-430,65
785,18950428,193,-902,-1854,1358,-446,65
786,18950438,144,-930,-1845,1285,-398,53
787,18950448,90,-942,-1882,1225,-334,34
788,18950458,85,-993,-1888,1216,-247,-18
789,18950468,39,-1011,-1870,1200,-162,-53
790,18950478,48,-990,-1855,1171,-160,-115
791,18950488,109,-930,-1824,1122,-179,-162
792,18950498,164,-911,-1799,1063,-187,-178
793,18950508,132,-923,-1816,996,-200,-156
794,18950518,103,-891,-1827,960,-211,-187
795,18950528,183,-855,-1831,943,-230,-227
796,18950538,218,-861,-1802,920,-238,-230
797,18950548,194,-787,-1816,884,-251,-184
798,18950558,241,-793,-1822,935,-318,-153
799,18950568,275,-773,-1792,1011,-367,-134
800,18950578,290,-757,-1789,1047,-418,-149
801,18950588,223,-745,-1802,1106,-469,-129
802,18950598,327,-805,-1792,1250,-437,-193
803,18950608,331,-719,-1749,1184,-498,-134
804,18950618,328,-707,-1747,1290,-539,-55
805,18950628,373,-680,-1701,1413,-636,0
806,18950625,373,-681,-1701,1413,-636,29
807,18950635,426,-655,-1685,1524,-724,99
808,18950645,435,-652,-1700,1608,-800,190
809,18950655,438,-656,-1738,1706,-844,210
810,18950665,212,-1265,-2076,1635,-811,244
811,18950675,-44,-587,-2072,87,-505,413
812,18950685,334,-932,-2045,954,-265,-14
813,18950695,175,-700,-1805,1211,38,-39
814,18950705,451,-792,-1638,1431,196,-138
815,18950715,451,-744,-1558,1226,84,-45
816,18950725,646,-501,-1474,1077,30,83
817,18950735,372,-811,-1753,1048,87,-54
818,18950745,274,-616,-1837,757,-8,514
819,18950755,93,-1027,-1937,1159,100,331
820,18950765,6,-906,-1961,1046,36,480
821,18950775,77,-1019,-1860,1254,106,260
822,18950785,60,-999,-1819,1341,133,212
823,18950795,83,-1001,-1785,1333,106,196
824,18950805,168,-916,-1732,1313,147,113
825,18950815,221,-858,-1695,1310,205,0
826,18950825,199,-889,-1709,1281,222,-67
827,18950835,169,-951,-1799,1186,173,-28
828,18950845,75,-1047,-1913,1119,105,27
829,18950855,-29,-1255,-2029,1104,37,82
830,18950865,-98,-1364,-2008,990,4,124
831,18950875,-77,-1357,-1907,970,-25,0
832,18950871,-76,-1358,-1907,971,-26,37
833,18950881,-20,-1289,-1813,927,-56,-260
834,18950891,8,-1186,-1794,797,-79,-487
835,18950901,104,-1089,-1737,807,-132,-547
836,18950911,182,-969,-1686,844,-165,-531
837,18950921,338,-912,-1546,967,-97,-697
838,18950931,404,-797,-1533,902,-113,-711
839,18950941,481,-712,-1549,828,-230,-651
840,18950951,479,-648,-1628,811,-414,-551
841,18950961,428,-610,-1727,883,-577,-428
842,18950971,442,-560,-1799,1034,-672,-327
843,18950981,441,-580,-1874,1173,-721,-207
844,18950991,390,-629,-1882,1300,-688,-58
845,18951001,325,-772,-1879,1424,-620,60
846,18951011,258,-919,-1893,1465,-599,157
847,18951021,203,-1010,-1850,1469,-648,216
848,18951031,136,-1072,-1807,1554,-711,197
849,18951041,120,-1070,-1745,1582,-755,254
850,18951051,95,-1405,-1749,1749,-867,291
851,18951061,110,-1136,-1713,1615,-936,260
852,18951071,95,-991,-1699,867,-1039,152
853,18951081,47,-1318,-1920,1172,-918,-29
854,18951091,-107,-1063,-1930,505,-939,226
855,18951101,-64,-1182,-1889,686,-895,191
856,18951111,-142,-1094,-1885,635,-829,136
857,18951121,-76,-1100,-1862,562,-833,0
858,18951118,-76,-1100,-1862,563,-834,30
859,18951128,-97,-1099,-1813,616,-805,11
860,18951138,-51,-979,-1754,523,-800,-24
861,18951148,52,-838,-1733,315,-782,-114
862,18951158,129,-753,-1764,286,-707,-147
863,18951168,132,-682,-1774,334,-616,-143
864,18951178,269,-678,-1751,456,-436,-267
865,18951188,266,-620,-1837,412,-364,-227
866,18951198,212,-614,-1889,517,-249,-215
867,18951208,146,-665,-1934,667,-155,-248
868,18951218,160,-697,-1945,754,-88,-252
869,18951228,146,-706,-1949,773,-23,-229
870,18951238,147,-709,-1917,781,53,-230
871,18951248,217,-710,-1909,845,167,-268
872,18951258,376,-708,-1758,905,323,-383
873,18951268,459,-626,-1700,776,343,-407
874,18951278,489,-517,-1697,661,283,-409
875,18951288,620,-477,-1628,768,240,-405
876,18951298,613,-505,-1613,861,206,-352
877,18951308,502,-519,-1644,941,122,-272
878,18951318,430,-584,-1721,1045,22,-285
879,18951328,367,-686,-1695,1181,-19,-321
880,18951338,258,-794,-1848,1177,-63,-209
881,18951348,115,-907,-1879,1090,-148,-143
882,18951358,123,-955,-1900,1107,-173,-160
883,18951368,92,-927,-1917,1019,-162,-256
884,18951365,93,-927,-1917,1020,-162,-186
885,18951375,64,-897,-1919,1039,-103,-235
886,18951385,83,-867,-1876,1224,-53,-212
887,18951395,139,-846,-1830,1392,-59,-203
888,18951405,166,-804,-1812,1466,-117,-208
889,18951415,169,-768,-1799,1559,-185,-162
890,18951425,209,-743,-1802,1651,-219,-118
891,18951435,197,-777,-1842,1665,-252,-77
892,18951445,132,-835,-1843,1660,-251,-25
893,18951455,51,-942,-1916,1615,-263,66
894,18951465,51,-1028,-1956,1561,-342,124
895,18951475,25,-1079,-1953,1487,-400,123
896,18951485,32,-1051,-1905,1412,-386,96
897,18951495,83,-1007,-1838,1368,-354,60
898,18951505,160,-948,-1749,1372,-335,12
899,18951515,210,-889,-1693,1406,-332,-24
900,18951525,263,-840,-1682,1415,-406,19
901,18951535,317,-795,-1687,1489,-495,92
902,18951545,167,-900,-1751,1576,-571,172
903,18951555,229,-1015,-1773,1728,-585,119
904,18951565,69,-1032,-1987,549,-532,118
905,18951575,141,-988,-1882,1015,-500,83
906,18951585,135,-965,-1833,1000,-486,-87
907,18951595,235,-973,-1804,1094,-393,-84
908,18951605,117,-1127,-1830,1057,-435,40
909,18951615,67,-1003,-1779,1058,-409,0
910,18951612,67,-1004,-1779,1058,-410,66
911,18951622,92,-1024,-1759,1042,-490,60
912,18951632,96,-1011,-1772,922,-496,59
913,18951642,64,-1024,-1850,801,-493,107
914,18951652,47,-1011,-1830,778,-475,68
915,18951662,55,-918,-1855,759,-458,6
916,18951672,129,-854,-1806,863,-455,-47
917,18951682,170,-816,-1769,920,-424,-122
918,18951692,194,-801,-1738,882,-418,-91
919,18951702,229,-765,-1736,894,-417,-66
920,18951712,268,-740,-1754,906,-404,-58
921,18951722,258,-740,-1762,948,-368,-64
922,18951732,354,-712,-1713,999,-339,-69
923,18951742,448,-682,-1694,1036,-311,-95
924,18951752,438,-711,-1763,1039,-300,-115
925,18951762,345,-760,-1845,907,-303,49
926,18951772,293,-830,-1962,772,-235,154
927,18951782,266,-818,-1925,617,-88,132
928,18951792,251,-842,-1857,543,96,52
929,18951802,237,-850,-1830,504,201,48
930,18951812,251,-770,-1780,464,225,89
931,18951822,500,-928,-1649,745,259,-35
932,18951832,189,-560,-1749,1241,637,-243
933,18951842,461,-466,-1434,1203,351,473
934,18951852,389,-770,-1780,1285,623,-217
935,18951862,84,-466,-1845,874,473,256
936,18951858,84,-466,-1845,874,473,271
937,18951868,134,-1002,-1922,1272,496,372
938,18951878,-154,-1142,-2039,1400,357,640
939,18951888,-142,-1309,-2064,1472,236,433
940,18951898,-237,-1268,-2072,1523,130,187
941,18951908,-108,-1170,-2001,1590,68,-129
942,18951918,-2,-1163,-1903,1655,69,-359
943,18951928,94,-1298,-1856,1443,125,-403
944,18951938,32,-1233,-1813,851,134,-123
945,18951948,86,-1153,-1721,734,95,-17
946,18951958,138,-984,-1717,622,2,-321
947,18951968,166,-879,-1741,667,-76,-453
948,18951978,268,-894,-1637,918,-84,-441
949,18951988,295,-854,-1669,967,-134,-358
950,18951998,297,-807,-1703,902,-223,-318
951,18952008,341,-771,-1729,872,-320,-285
952,18952018,388,-721,-1749,889,-399,-236
953,18952028,376,-730,-1766,937,-454,-179
954,18952038,370,-765,-1780,974,-513,-95
955,18952048,374,-788,-1779,981,-561,-17
956,18952058,390,-809,-1785,944,-592,5
957,18952068,328,-835,-1798,914,-594,23
958,18952078,312,-858,-1815,927,-582,37
959,18952088,325,-864,-1831,967,-519,-16
960,18952098,299,-922,-1775,1123,-470,4
961,18952108,258,-938,-1765,1136,-476,-256
962,18952105,259,-939,-1765,1136,-476,-38
963,18952115,298,-926,-1789,1053,-491,-95
964,18952125,283,-926,-1792,1009,-494,-127
965,18952135,249,-892,-1801,971,-479,-141
966,18952145,249,-846,-1830,953,-445,-195
967,18952155,288,-812,-1828,973,-383,-256
968,18952165,268,-803,-1813,982,-323,-254
969,18952175,269,-767,-1800,986,-308,-226
970,18952185,270,-765,-1863,963,-309,-197
971,18952195,247,-765,-1896,975,-247,-186
972,18952205,230,-828,-1856,1078,-113,-207
973,18952215,234,-858,-1818,1110,-68,-198
974,18952225,263,-848,-1821,1069,-110,-172
975,18952235,234,-875,-1808,1046,-151,-155
976,18952245,234,-856,-1789,1048,-173,-150
977,18952255,305,-845,-1755,1065,-185,-181
978,18952265,301,-825,-1778,1056,-206,-172
979,18952275,268,-831,-1797,1097,-206,-158
980,18952285,284,-839,-1804,1155,-162,-208
981,18952295,309,-837,-1802,1162,-162,-205
982,18952305,260,-850,-1835,1126,-195,-175
983,18952315,248,-865,-1836,1099,-229,-154
984,18952325,294,-841,-1839,1106,-214,-167
985,18952335,299,-838,-1791,1116,-205,-154
986,18952345,275,-858,-1791,1108,-220,-139
987,18952355,309,-850,-1752,1079,-223,-256
988,18952351,309,-851,-1752,1080,-224,-138
989,18952361,360,-837,-1752,1046,-231,-131
990,18952371,346,-820,-1749,1021,-271,-112
991,18952381,332,-807,-1761,1020,-323,-89
992,18952391,337,-807,-1777,996,-352,-92
993,18952401,326,-818,-1800,996,-365,-97
994,18952411,289,-829,-1820,1018,-359,-97
995,18952421,281,-839,-1816,1058,-356,-86
996,18952431,288,-849,-1848,1088,-340,-76
997,18952441,270,-847,-1846,1114,-307,-82
998,18952451,258,-852,-1833,1153,-253,-124
999,18952461,280,-843,-1806,1167,-232,-140
1000,18952471,301,-843,-1766,1154,-247,-128
1001,18952481,284,-839,-1770,1125,-274,-95
1002,18952491,291,-836,-1774,1080,-294,-63
1003,18952501,315,-837,-1789,1037,-314,-45
1004,18952511,281,-828,-1786,1025,-313,-46
1005,18952521,266,-832,-1811,1028,-283,-67
1006,18952531,292,-819,-1810,1046,-251,-86
1007,18952541,275,-867,-1846,1069,-239,-66
1008,18952551,227,-879,-1841,1083,-228,-17
1009,18952561,233,-904,-1835,1092,-224,-37
1010,18952571,265,-892,-1828,1058,-215,-68
1011,18952581,271,-874,-1805,1040,-202,-85
1012,18952591,267,-866,-1772,1053,-189,-106
1013,18952601,314,-842,-1763,1065,-190,-256
1014,18952598,315,-843,-1763,1065,-191,-110
1015,18952608,311,-833,-1772,1043,-218,-108
1016,18952618,279,-856,-1762,1064,-233,-114
1017,18952628,284,-855,-1786,1085,-257,-111
1018,18952638,291,-875,-1807,1071,-288,-105
1019,18952648,271,-911,-1831,1042,-308,-83
1020,18952658,237,-885,-1858,1021,-312,-76
1021,18952668,284,-866,-1827,1042,-298,-88
1022,18952678,302,-834,-1825,1073,-275,-110
1023,18952688,286,-815,-1799,1094,-245,-121
1024,18952698,308,-818,-1785,1132,-209,-111
1025,18952708,317,-839,-1780,1151,-231,-92
1026,18952718,313,-875,-1794,1154,-251,-86
1027,18952728,280,-885,-1793,1156,-256,-92
1028,18952738,293,-899,-1796,1161,-259,-103
1029,18952748,306,-885,-1787,1120,-267,-100
1030,18952758,278,-864,-1801,1076,-273,-100
1031,18952768,292,-882,-1799,1048,-285,-91
1032,18952778,300,-892,-1820,1042,-283,-89
1033,18952788,255,-922,-1835,1026,-277,-92
1034,18952798,220,-974,-1863,1008,-251,-122
1035,18952808,200,-988,-1892,997,-206,-146
1036,18952818,225,-991,-1877,982,-169,-209
1037,18952828,241,-919,-1814,942,-130,-265
1038,18952838,325,-847,-1748,907,-104,-280
1039,18952848,397,-773,-1699,876,-113,-512
1040,18952845,397,-774,-1699,877,-114,-262
1041,18952855,393,-724,-1704,875,-167,-240
1042,18952865,391,-701,-1697,900,-237,-185
1043,18952875,432,-703,-1717,988,-302,-151
1044,18952885,425,-741,-1750,1069,-364,-106
1045,18952895,339,-800,-1768,1121,-427,-15
1046,18952905,337,-794,-1803,1141,-470,-10
1047,18952915,355,-750,-1825,1141,-498,0
1048,18952925,338,-815,-1814,1250,-460,-25
1049,18952935,297,-870,-1808,1292,-385,-17
1050,18952945,317,-851,-1782,1259,-346,-25
1051,18952955,329,-855,-1776,1256,-352,-40
1052,18952965,277,-875,-1765,1245,-364,-30
1053,18952975,267,-891,-1788,1264,-405,-13
1054,18952985,299,-886,-1775,1322,-434,-27
1055,18952995,239,-922,-1773,1362,-476,43
1056,18953005,183,-938,-1792,1428,-547,132
1057,18953015,250,-919,-1762,1520,-657,175
1058,18953025,218,-1279,-1817,1664,-749,175
1059,18953035,130,-958,-1829,1200,-684,190
1060,18953045,109,-956,-1827,863,-755,161
1061,18953055,81,-1100,-1822,1221,-758,88
1062,18953065,-32,-1541,-2008,1225,-822,183
1063,18953075,-282,-1264,-2003,732,-993,464
1064,18953085,-126,-1287,-1897,839,-1036,274
1065,18953095,-125,-1204,-1886,808,-947,0
1066,18953091,-124,-1205,-1886,809,-948,132
1067,18953101,-100,-1119,-1829,699,-809,-28
1068,18953111,13,-963,-1743,590,-672,-108
1069,18953121,131,-808,-1712,455,-592,-224
1070,18953131,172,-683,-1731,376,-528,-259
1071,18953141,213,-667,-1734,480,-483,-254
1072,18953151,249,-610,-1798,484,-399,-249
1073,18953161,266,-598,-1866,502,-301,-230
1074,18953171,267,-582,-1892,551,-179,-255
1075,18953181,346,-569,-1851,628,-54,-275
1076,18953191,415,-516,-1977,723,58,-333
1077,18953201,535,-530,-1762,961,254,-562
1078,18953211,524,-524,-1756,993,237,-518
1079,18953221,537,-508,-1767,844,191,-328
1080,18953231,592,-487,-1744,799,104,-225
1081,18953241,535,-554,-1755,819,63,-203
1082,18953251,486,-610,-1755,828,150,-193
1083,18953261,489,-715,-1714,865,285,-275
1084,18953271,417,-744,-1707,794,330,-349
1085,18953281,367,-725,-1643,731,289,-420
1086,18953291,407,-731,-1689,761,185,-393
1087,18953301,344,-727,-1689,748,50,-284
1088,18953311,231,-770,-1759,893,-83,-218
1089,18953321,159,-818,-1868,1064,-250,-133
1090,18953331,126,-852,-1919,1315,-365,-41
1091,18953341,96,-924,-1923,1554,-403,-256
1092,18953338,97,-925,-1923,1554,-404,-40
1093,18953348,72,-965,-1947,1625,-396,-44
1094,18953358,51,-962,-1983,1541,-380,-4
1095,18953368,66,-965,-2001,1418,-336,-38
1096,18953378,52,-917,-1964,1283,-248,-95
1097,18953388,121,-833,-1900,1201,-173,-112
1098,18953398,216,-776,-1832,1186,-148,-114
1099,18953408,205,-750,-1797,1176,-195,-67
1100,18953418,185,-782,-1766,1261,-301,18
1101,18953428,197,-766,-1785,1417,-425,89
1102,18953438,222,-828,-1799,1559,-534,97
1103,18953448,178,-849,-1798,1608,-624,144
1104,18953458,200,-881,-1766,1680,-689,233
1105,18953468,216,-897,-1753,1707,-755,305
1106,18953478,164,-954,-1777,1716,-864,399
1107,18953488,-89,-1402,-1883,1738,-1003,484
1108,18953498,122,-934,-1816,1481,-924,405
1109,18953508,10,-1099,-2080,246,-982,174
1110,18953518,-130,-1017,-2072,764,-751,118
1111,18953528,18,-886,-1910,830,-714,124
1112,18953538,83,-1020,-1866,1114,-501,-19
1113,18953548,56,-945,-1793,1030,-450,53
1114,18953558,43,-987,-1761,1055,-502,35
1115,18953568,78,-954,-1751,970,-564,88
1116,18953578,92,-944,-1764,891,-597,82
1117,18953588,46,-893,-1776,833,-565,-256
1118,18953585,46,-894,-1776,834,-566,-18
1119,18953595,89,-891,-1764,854,-479,-152
1120,18953605,91,-855,-1805,795,-495,-168
1121,18953615,44,-859,-1831,767,-508,-157
1122,18953625,32,-833,-1832,758,-543,-109
1123,18953635,125,-796,-1839,739,-559,-136
1124,18953645,171,-699,-1832,695,-526,-146
1125,18953655,176,-689,-1806,734,-464,-135
1126,18953665,102,-760,-1839,810,-430,-96
1127,18953675,102,-798,-1857,869,-433,-45
1128,18953685,54,-836,-1915,882,-440,-123
1129,18953695,-53,-840,-1956,860,-366,-153
1130,18953705,4,-840,-1937,938,-288,-185
1131,18953715,-1,-821,-1908,899,-200,-197
1132,18953725,34,-793,-1875,898,-98,-197
1133,18953735,79,-787,-1843,859,-10,-213
1134,18953745,141,-764,-1950,745,67,-217
1135,18953755,152,-699,-1789,720,208,-307
1136,18953765,269,-690,-1742,848,338,-402
1137,18953775,415,-624,-1732,716,394,-426
1138,18953785,478,-510,-1759,521,382,-405
1139,18953795,544,-400,-1753,488,329,-388
1140,18953805,608,-364,-1677,629,307,-375
1141,18953815,594,-386,-1690,793,272,-320
1142,18953825,497,-430,-1697,925,164,-229
1143,18953835,405,-558,-1734,1085,-10,-256
1144,18953831,406,-558,-1734,1086,-10,-185
1145,18953841,274,-654,-1807,1141,-183,-77
1146,18953851,188,-800,-1864,1169,-297,56
1147,18953861,12,-911,-1962,1184,-363,154
1148,18953871,-33,-989,-1988,1320,-310,74
1149,18953881,-36,-980,-1966,1441,-274,-9
1150,18953891,22,-976,-1877,1602,-229,-137
1151,18953901,92,-951,-1741,1714,-211,-214
1152,18953911,157,-904,-1717,1693,-267,-190
1153,18953921,169,-847,-1700,1586,-376,-99
1154,18953931,181,-760,-1716,1495,-482,-44
1155,18953941,171,-711,-1730,1447,-586,40
1156,18953951,94,-797,-1788,1508,-686,181
1157,18953961,-37,-885,-1867,1592,-861,391
1158,18953971,-348,-1347,-2094,1761,-1105,512
1159,18953981,-308,-1183,-2117,1663,-1202,673
1160,18953991,-235,-1018,-2171,316,-1076,346
1161,18954001,-69,-880,-1965,1166,-735,-150
1162,18954011,-153,-731,-1891,1379,-517,-204
1163,18954021,79,-897,-1790,1301,-525,28
1164,18954031,42,-877,-1720,1120,-448,48
1165,18954041,29,-944,-1747,1065,-434,117
1166,18954051,1,-936,-1767,982,-378,36
1167,18954061,37,-890,-1804,935,-406,-27
1168,18954071,56,-830,-1829,890,-379,-167
1169,18954081,149,-752,-1796,895,-324,-256
1170,18954078,149,-752,-1796,896,-325,-204
1171,18954088,252,-676,-1766,897,-260,-210
1172,18954098,258,-641,-1764,945,-214,-218
1173,18954108,265,-631,-1785,1013,-216,-203
1174,18954118,234,-619,-1868,1034,-244,-145
1175,18954128,178,-755,-1906,1135,-204,-50
1176,18954138,-13,-887,-1940,1165,-120,43
1177,18954148,-101,-992,-1956,1187,-24,25
1178,18954158,-63,-1056,-1870,1189,46,-107
1179,18954168,-45,-1165,-1856,1083,133,-248
1180,18954178,19,-1110,-1932,682,159,-179
1181,18954188,-82,-926,-1975,139,88,-54
1182,18954198,64,-781,-1918,448,332,-381
1183,18954208,29,-690,-1846,522,361,-290
1184,18954218,56,-635,-1833,916,326,-242
1185,18954228,227,-609,-1748,1199,294,-341
1186,18954238,243,-590,-1749,1350,170,-168
1187,18954248,277,-666,-1667,1456,36,102
1188,18954258,408,-617,-1580,1520,-128,203
1189,18954268,488,-607,-1521,1568,-336,249
1190,18954278,480,-586,-1499,1679,-549,304
1191,18954288,358,-727,-1573,1739,-796,465
1192,18954298,-118,-1843,-2042,1699,-1015,669
1193,18954308,-334,-719,-1916,969,-1016,899
1194,18954318,-189,-972,-2218,391,-1066,604
1195,18954328,-123,-997,-2063,1304,-733,0
1196,18954325,-122,-997,-2063,1304,-733,186
1197,18954335,-130,-1089,-1997,1426,-418,343
1198,18954345,-76,-938,-1985,1212,-202,473
1199,18954355,-38,-901,-1836,1260,-233,502
1200,18954365,78,-853,-1749,1355,-168,383
1201,18954375,78,-879,-1714,1313,-234,288
1202,18954385,35,-923,-1689,1335,-278,285
1203,18954395,31,-937,-1718,1289,-325,239
1204,18954405,26,-988,-1730,1253,-338,166
1205,18954415,-13,-1028,-1695,1234,-324,88
1206,18954425,-32,-1016,-1763,1161,-309,18
1207,18954435,-47,-1056,-1784,1141,-295,-45
1208,18954445,-184,-1154,-1778,1136,-263,-62
1209,18954455,-157,-1126,-1786,1080,-276,-151
1210,18954465,-63,-1020,-1788,920,-282,-295
1211,18954475,65,-965,-1721,956,-216,-378
1212,18954485,131,-886,-1667,981,-205,-437
1213,18954495,178,-867,-1655,936,-265,-386
1214,18954505,213,-820,-1712,844,-365,-314
1215,18954515,183,-822,-1790,730,-400,-239
1216,18954525,84,-847,-1898,720,-369,-159
1217,18954535,57,-848,-1967,761,-235,-190
1218,18954545,86,-882,-1936,892,-22,-293
1219,18954555,164,-870,-1852,940,154,-345
1220,18954565,263,-871,-1781,822,263,-362
1221,18954575,399,-820,-1744,623,312,-512
1222,18954571,400,-820,-1744,624,311,-368
1223,18954581,466,-667,-1757,442,408,-411
1224,18954591,569,-570,-1704,273,496,-322
1225,18954601,637,-549,-1643,518,671,-435
1226,18954611,564,-538,-1486,822,697,-472
1227,18954621,409,-684,-1538,1182,419,-366
1228,18954631,169,-822,-1606,1336,28,-97
1229,18954641,78,-880,-1667,1509,-499,235
1230,18954651,42,-961,-1743,1690,-1037,487
1231,18954661,-30,-1046,-1862,1798,-1260,619
1232,18954671,-28,-996,-1856,1791,-1137,633
1233,18954681,72,-980,-1821,1811,-924,525
1234,18954691,-183,-1759,-2073,1779,-782,462
1235,18954701,-375,-788,-1994,656,-625,757
1236,18954711,-25,-1069,-1968,749,-476,213
1237,18954721,15,-918,-1801,956,-193,95
1238,18954731,70,-878,-1737,962,-66,-44
1239,18954741,259,-773,-1615,994,-71,-68
1240,18954751,118,-695,-1639,1186,-90,-167
1241,18954761,151,-785,-1690,1188,-205,-63
1242,18954771,35,-945,-1764,1380,-240,-115
1243,18954781,-31,-1078,-1765,1497,-250,-63
1244,18954791,-212,-1164,-1893,1356,-415,66
1245,18954801,-217,-1167,-1949,1238,-474,-25
1246,18954811,-126,-1079,-1877,1170,-442,-121
1247,18954821,-12,-1052,-1771,1163,-319,-256
1248,18954818,-12,-1052,-1771,1163,-319,-180
1249,18954828,17,-1010,-1723,1103,-241,-199
1250,18954838,81,-997,-1693,1043,-245,-228
1251,18954848,105,-971,-1711,932,-268,-239
1252,18954858,77,-949,-1749,892,-290,-252
1253,18954868,126,-926,-1734,937,-277,-314
1254,18954878,138,-927,-1750,1005,-249,-364
1255,18954888,134,-943,-1776,1008,-270,-323
1256,18954898,42,-968,-1815,1008,-297,-288
1257,18954908,56,-955,-1827,1007,-306,-268
1258,18954918,67,-936,-1819,1061,-293,-268
1259,18954928,19,-919,-1827,1111,-303,-245
1260,18954938,-20,-953,-1835,1142,-306,-137
1261,18954948,4,-957,-1801,1092,-363,58
1262,18954958,49,-975,-1758,1136,-387,106
1263,18954968,56,-973,-1757,1151,-352,43
1264,18954978,50,-951,-1787,1113,-308,-12
1265,18954988,89,-954,-1735,1112,-276,-51
1266,18954998,67,-960,-1749,1088,-269,-45
1267,18955008,60,-959,-1765,1035,-264,-36
1268,18955018,70,-957,-1775,1017,-238,-43
1269,18955028,80,-930,-1791,1023,-230,-39
1270,18955038,66,-917,-1760,1075,-219,-15
1271,18955048,56,-934,-1789,1094,-251,69
1272,18955058,82,-964,-1818,1141,-311,183
1273,18955068,61,-973,-1836,1168,-350,256
1274,18955065,61,-974,-1836,1168,-351,294
1275,18955075,81,-936,-1802,1235,-286,275
1276,18955085,94,-1013,-1762,1410,-256,305
1277,18955095,80,-1040,-1771,1439,-315,378
1278,18955105,-8,-1038,-1796,1423,-283,332
1279,18955115,21,-1010,-1759,1551,-147,198
1280,18955125,77,-1080,-1660,1743,-133,207
1281,18955135,66,-879,-1633,1645,-242,210
1282,18955145,-94,-1065,-1741,1549,-293,145
1283,18955155,72,-1073,-1751,1479,-349,48
1284,18955165,84,-1066,-1782,1335,-356,65
1285,18955175,76,-1093,-1755,1328,-321,9
1286,18955185,80,-1123,-1731,1381,-294,-70
1287,18955195,20,-1163,-1728,1408,-305,-40
1288,18955205,3,-1188,-1675,1511,-234,-112
1289,18955215,-32,-1255,-1553,1645,-96,-180
1290,18955225,49,-1241,-1498,1596,-63,-227
1291,18955235,84,-1262,-1535,1349,-126,-241
1292,18955245,-48,-1318,-1558,1227,-273,-249
1293,18955255,92,-1106,-1675,1090,-438,-493
1294,18955265,31,-1103,-1654,1059,-416,-457
1295,18955275,93,-1028,-1642,1112,-347,-491
1296,18955285,127,-996,-1668,1076,-380,-496
1297,18955295,210,-1117,-1488,1321,-473,-410
1298,18955305,144,-1340,-1339,2083,-523,-623
1299,18955315,78,-1296,-1474,1795,-608,-768
1300,18955312,78,-1296,-1474,1795,-609,-720
1301,18955322,-2,-1363,-1474,1623,-734,-468
1302,18955332,152,-1300,-1473,1691,-655,-730
1303,18955342,123,-1284,-1509,1613,-601,-834
1304,18955352,53,-1266,-1586,1442,-652,-709
1305,18955362,69,-1219,-1632,1353,-654,-655
1306,18955372,69,-1230,-1670,1305,-608,-623
1307,18955382,40,-1235,-1661,1313,-544,-601
1308,18955392,58,-1232,-1650,1269,-492,-595
1309,18955402,86,-1209,-1633,1246,-464,-520
1310,18955412,58,-1194,-1626,1258,-468,-505
1311,18955422,73,-1210,-1593,1297,-444,-526
1312,18955432,82,-1179,-1587,1323,-461,-536
1313,18955442,105,-1170,-1600,1327,-501,-539
1314,18955452,49,-1143,-1613,1286,-526,-484
1315,18955462,-28,-1205,-1648,1237,-537,-341
1316,18955472,-4,-1176,-1694,999,-562,-176
1317,18955482,-59,-1196,-1746,876,-551,-71
1318,18955492,-70,-1151,-1745,824,-514,-59
1319,18955502,-62,-1110,-1746,928,-483,-109
1320,18955512,-62,-1136,-1691,1106,-426,-164
1321,18955522,-38,-1101,-1638,1255,-383,-234
1322,18955532,-29,-1135,-1572,1340,-382,-264
1323,18955542,-16,-1148,-1552,1296,-388,-249
1324,18955552,-27,-1201,-1552,1175,-380,-203
1325,18955562,-29,-1217,-1592,1020,-361,-256
1326,18955558,-29,-1217,-1592,1021,-361,-193
1327,18955568,22,-1216,-1633,954,-330,-223
1328,18955578,28,-1234,-1636,1022,-309,-245
1329,18955588,16,-1260,-1596,1075,-285,-230
1330,18955598,30,-1275,-1579,1084,-268,-224
1331,18955608,62,-1243,-1598,1068,-265,-188
1332,18955618,53,-1234,-1615,1058,-269,-113
1333,18955628,48,-1247,-1595,1046,-285,-6
1334,18955638,73,-1251,-1609,997,-283,46
1335,18955648,69,-1262,-1591,966,-254,67
1336,18955658,41,-1260,-1585,948,-212,48
1337,18955668,71,-1273,-1556,939,-158,48
1338,18955678,80,-1263,-1580,909,-148,47
1339,18955688,71,-1275,-1591,900,-147,52
1340,18955698,45,-1254,-1600,910,-156,61
1341,18955708,91,-1240,-1602,940,-158,65
1342,18955718,70,-1257,-1619,988,-186,89
1343,18955728,47,-1254,-1613,1019,-185,52
1344,18955738,63,-1281,-1580,1070,-155,5
1345,18955748,81,-1266,-1584,1067,-147,-21
1346,18955758,51,-1259,-1624,1036,-152,-53
1347,18955768,51,-1238,-1640,1047,-132,-91
1348,18955778,75,-1234,-1666,1083,-100,-129
1349,18955788,67,-1219,-1692,1130,-78,-148
1350,18955798,43,-1230,-1700,1220,-63,-171
1351,18955808,63,-1208,-1799,1307,-71,-256
1352,18955805,64,-1209,-1799,1307,-72,-179
1353,18955815,62,-1109,-2100,1415,-117,-209
1354,18955825,98,-1092,-2289,1796,-36,-357
1355,18955835,150,-1137,-2337,2376,124,-521
1356,18955845,168,-1181,-2348,2807,256,-590
1357,18955855,233,-1254,-2272,3109,466,-649
1358,18955865,192,-1425,-2304,3255,770,-699
1359,18955875,163,-1988,-2014,3434,1040,-561
1360,18955885,270,-1600,-1844,2792,1319,-546
1361,18955895,484,-1327,-1764,2248,1719,-865
1362,18955905,495,-1486,-1588,2328,2073,-596
1363,18955915,559,-1362,-1519,2066,2282,-409
1364,18955925,656,-1205,-1379,1818,2459,-466
1365,18955935,667,-1156,-1149,1877,2683,-473
1366,18955945,706,-1073,-951,1808,2756,-503
1367,18955955,746,-986,-860,1675,2716,-509
1368,18955965,648,-1147,-696,1695,2660,-432
1369,18955975,621,-1178,-531,1435,2683,-462
1370,18955985,836,-1189,-429,1043,2667,-613
1371,18955995,767,-1034,-384,647,2401,-280
1372,18956005,749,-1353,-328,1041,1987,95
1373,18956015,761,-1457,-288,973,1371,406
1374,18956025,689,-1476,-389,778,681,848
1375,18956035,687,-1385,-511,722,87,754
1376,18956045,609,-1484,-570,883,-338,728
1377,18956055,559,-1497,-578,1086,-597,768
1378,18956052,560,-1498,-578,1087,-598,786
1379,18956062,510,-1582,-537,1420,-814,755
1380,18956072,450,-1602,-562,1597,-1058,645
1381,18956082,414,-1599,-577,1616,-1307,549
1382,18956092,397,-1634,-675,1563,-1452,543
1383,18956102,289,-1726,-787,1488,-1536,556
1384,18956112,238,-1878,-986,1432,-1486,576
1385,18956122,205,-2091,-1124,1376,-1474,546
1386,18956132,140,-2261,-1269,1327,-1411,502
1387,18956142,95,-2361,-1325,1306,-1314,350
1388,18956152,122,-2370,-1353,1357,-1233,72
1389,18956162,189,-2316,-1341,1369,-1143,-174
1390,18956172,210,-2181,-1243,1396,-1066,-383
1391,18956182,280,-1883,-1137,1444,-1019,-617
1392,18956192,370,-1615,-1129,1404,-1056,-843
1393,18956202,422,-1439,-1099,1358,-1066,-886
1394,18956212,417,-1346,-1108,1344,-1022,-741
1395,18956222,430,-1332,-1109,1295,-927,-554
1396,18956232,452,-1307,-1093,1259,-863,-368
1397,18956242,406,-1260,-1059,1197,-822,-238
1398,18956252,413,-1053,-995,1124,-772,-157
1399,18956262,447,-938,-970,1178,-756,121
1400,18956272,382,-901,-970,1152,-714,576
1401,18956282,262,-824,-1091,884,-562,1127
1402,18956292,279,-847,-862,1000,-305,1677
1403,18956302,-1,-3853,-816,1406,-13,2305
1404,18956298,0,-3853,-816,1406,-13,2316
1405,18956308,-1037,-3232,-2059,-1439,-696,2806
1406,18956318,-173,-1492,-2073,-1014,-1422,-695
1407,18956328,415,-1295,-1318,386,-325,-1019
1408,18956338,201,-1753,-1189,1109,-13,299
1409,18956348,138,-1646,-1437,1011,-588,564
1410,18956358,190,-1429,-1433,1209,-542,224
1411,18956368,171,-1529,-1224,1514,-191,237
1412,18956378,65,-1689,-1200,1568,-117,284
1413,18956388,-46,-1801,-1308,1355,-155,224
1414,18956398,-388,-1529,-1443,1180,-72,126
1415,18956408,94,-1817,-1276,615,12,-108
1416,18956418,-451,-1305,-1285,1110,329,-424
1417,18956428,-36,-1997,-1206,-215,300,22
1418,18956438,-276,-2024,-955,288,659,128
1419,18956448,-13,-1897,-987,133,528,-819
1420,18956458,20,-1641,-1122,-39,129,-1522
1421,18956468,34,-1511,-1127,87,-10,-1354
1422,18956478,46,-1453,-1124,342,-47,-1272
1423,18956488,69,-1462,-1067,681,-12,-1238
1424,18956498,141,-1497,-1014,1056,-63,-1175
1425,18956508,228,-1521,-1023,1308,-182,-1141
1426,18956518,257,-1581,-1086,1419,-268,-1101
1427,18956528,330,-1577,-1028,1564,-219,-1145
1428,18956538,477,-1498,-1017,1621,-197,-1246
1429,18956548,547,-1389,-1022,1479,-289,-1281
1430,18956545,547,-1390,-1022,1479,-290,-1255
1431,18956555,550,-1299,-1038,1356,-420,-1092
1432,18956565,581,-1180,-1037,1360,-532,-899
1433,18956575,648,-1077,-1017,1412,-587,-765
1434,18956585,653,-993,-1034,1366,-579,-613
1435,18956595,631,-911,-1081,1301,-679,-287
1436,18956605,640,-1001,-1220,1296,-906,348
1437,18956615,578,-1150,-1389,1252,-1156,1141
1438,18956625,424,-1417,-1560,1166,-1304,1725
1439,18956635,241,-1526,-1696,1012,-1232,2015
1440,18956645,495,-4122,-1934,981,-924,1796
1441,18956655,-182,-1498,-1660,274,-351,1245
1442,18956665,422,-1600,-1854,-584,-484,-80
1443,18956675,286,-1683,-1691,150,-120,37
1444,18956685,216,-1705,-1638,80,-141,556
1445,18956695,110,-1802,-1662,48,-217,738
1446,18956705,123,-1778,-1619,14,-192,849
1447,18956715,224,-1662,-1594,21,-217,903
1448,18956725,254,-1651,-1479,-51,-220,1016
1449,18956735,333,-1609,-1356,-155,-169,1066
1450,18956745,407,-1545,-1215,-466,-111,1095
1451,18956755,403,-1598,-1178,-724,-19,1101
1452,18956765,177,-1749,-1253,-937,-80,1100
1453,18956775,79,-1720,-1317,-1180,-288,1131
1454,18956785,251,-1508,-1354,-1368,-563,753
1455,18956795,440,-1333,-1223,-1364,-543,256
1456,18956792,440,-1333,-1223,-1363,-544,260
1457,18956802,638,-1268,-1050,-1123,-355,-221
1458,18956812,802,-1053,-1194,-1010,-192,-811
1459,18956822,935,-943,-1195,-635,29,-1051
1460,18956832,940,-1032,-1133,-51,242,-1092
1461,18956842,910,-1190,-1042,543,410,-877
1462,18956852,975,-1124,-1098,504,420,-1013
1463,18956862,1009,-943,-1215,225,362,-1242
1464,18956872,1038,-770,-1198,286,426,-1528
1465,18956882,1029,-749,-1054,613,599,-1668
1466,18956892,835,-1002,-1146,749,700,-1485
1467,18956902,335,-899,-1398,423,516,-1099
1468,18956912,68,-924,-1772,514,128,-703
1469,18956922,-5,-1027,-1938,1373,-513,-1
1470,18956932,-44,-1217,-2055,2077,-1450,1140
1471,18956942,-522,-3460,-2896,2269,-2191,1873
1472,18956952,-1083,-941,-2245,893,-2539,2740
1473,18956962,-167,-1191,-2605,-454,-1949,353
1474,18956972,525,-1269,-1933,2018,-682,-659
1475,18956982,407,-1201,-1561,1804,-141,-454
1476,18956992,118,-1239,-1433,1692,-298,-273
1477,18957002,507,-1055,-1309,1835,-526,-702
1478,18957012,319,-1174,-1243,1521,-697,-733
1479,18957022,228,-1297,-1270,1348,-611,-808
1480,18957032,189,-1355,-1369,793,-652,-883
1481,18957042,111,-1273,-1361,534,-757,-1024
1482,18957038,112,-1274,-1361,535,-758,-942
1483,18957048,322,-1134,-1479,671,-823,-1245
1484,18957058,330,-1030,-1665,455,-720,-1441
1485,18957068,144,-1128,-1747,742,-662,-988
1486,18957078,180,-1080,-1828,868,-691,-1030
1487,18957088,238,-1085,-1839,1000,-604,-989
1488,18957098,215,-1212,-1733,1284,-579,-899
1489,18957108,292,-1147,-1684,1599,-592,-1036
1490,18957118,352,-1106,-1675,1546,-594,-1013
1491,18957128,404,-1057,-1626,1428,-420,-959
1492,18957138,273,-1353,-1429,1673,-403,-776
1493,18957148,235,-1226,-1526,1641,-462,-859
1494,18957158,319,-1132,-1606,1331,-603,-910
1495,18957168,303,-1170,-1608,1264,-535,-773
1496,18957178,288,-1074,-1687,1087,-507,-671
1497,18957188,285,-990,-1809,926,-505,-635
1498,18957198,315,-896,-1904,852,-500,-531
1499,18957208,274,-829,-2004,779,-420,-432
1500,18957218,247,-799,-1979,918,-309,-293
1501,18957228,279,-818,-1959,1024,-193,-245
1502,18957238,268,-895,-1890,1111,-95,-161
1503,18957248,211,-966,-1829,1245,23,-128
1504,18957258,206,-1116,-1695,1385,171,-98
1505,18957268,240,-1170,-1592,1493,272,-77
1506,18957278,222,-1227,-1550,1548,263,-46
1507,18957288,252,-1244,-1520,1634,269,0
1508,18957285,252,-1244,-1520,1634,268,17
1509,18957295,283,-1329,-1482,1583,328,188
1510,18957305,300,-1329,-1457,1483,419,228
1511,18957315,335,-1316,-1460,1302,466,246
1512,18957325,404,-1289,-1475,1129,448,345
1513,18957335,412,-1296,-1486,1036,332,377
1514,18957345,417,-1224,-1545,931,207,229
1515,18957355,416,-1163,-1599,939,119,165
1516,18957365,452,-1152,-1611,1067,63,234
1517,18957375,409,-1238,-1579,1260,27,340
1518,18957385,405,-1236,-1606,1275,-58,311
1519,18957395,399,-1157,-1610,1233,-92,204
1520,18957405,472,-1170,-1568,1255,-50,225
1521,18957415,428,-1240,-1542,1090,20,310
1522,18957425,371,-1291,-1505,1036,17,380
1523,18957435,400,-1278,-1504,1075,-54,298
1524,18957445,420,-1246,-1513,1021,-95,201
1525,18957455,369,-1294,-1463,1060,-148,269
1526,18957465,345,-1307,-1455,995,-180,292
1527,18957475,340,-1370,-1491,933,-220,271
1528,18957485,298,-1342,-1527,904,-254,177
1529,18957495,321,-1294,-1557,977,-237,88
1530,18957505,353,-1274,-1530,1037,-169,41
1531,18957515,359,-1259,-1509,1027,-144,39
1532,18957525,354,-1228,-1531,982,-176,30
1533,18957535,368,-1229,-1548,966,-219,0
1534,18957532,369,-1229,-1548,966,-220,61
1535,18957542,378,-1219,-1545,952,-243,129
1536,18957552,351,-1239,-1556,942,-244,102
1537,18957562,324,-1241,-1554,941,-252,73
1538,18957572,353,-1240,-1549,996,-331,51
1539,18957582,390,-1199,-1599,1030,-394,1
1540,18957592,327,-1227,-1598,1099,-401,48
1541,18957602,314,-1242,-1569,1136,-390,55
1542,18957612,364,-1220,-1547,1149,-374,13
1543,18957622,352,-1252,-1531,1175,-327,0
1544,18957632,325,-1272,-1523,1156,-288,13
1545,18957642,382,-1245,-1523,1109,-283,-21
1546,18957652,369,-1266,-1522,1106,-286,-38
1547,18957662,358,-1275,-1524,1068,-289,-68
1548,18957672,329,-1258,-1556,1000,-296,-91
1549,18957682,339,-1261,-1578,934,-298,-112
1550,18957692,299,-1278,-1591,939,-281,-122
1551,18957702,303,-1260,-1589,924,-244,-175
1552,18957712,319,-1220,-1576,953,-177,-245
1553,18957722,317,-1219,-1609,1010,-126,-288
1554,18957732,360,-1207,-1528,1111,-87,-348
1555,18957742,339,-1237,-1512,1157,-117,-268
1556,18957752,376,-1252,-1525,1144,-165,-227
1557,18957762,375,-1224,-1526,1122,-208,-210
1558,18957772,344,-1269,-1513,1138,-233,-116
1559,18957782,373,-1261,-1508,1106,-250,-256
1560,18957778,373,-1262,-1508,1107,-250,-70
1561,18957788,389,-1243,-1517,1063,-267,-100
1562,18957798,347,-1259,-1557,1071,-287,-88
1563,18957808,359,-1245,-1553,1046,-288,-107
1564,18957818,393,-1225,-1580,1049,-265,-125
1565,18957828,365,-1250,-1589,1066,-245,-122
1566,18957838,349,-1270,-1576,1116,-235,-117
1567,18957848,387,-1243,-1569,1159,-195,-129
1568,18957858,416,-1253,-1532,1206,-169,-135
1569,18957868,373,-1259,-1489,1188,-180,-97
1570,18957878,385,-1265,-1519,1134,-202,-92
1571,18957888,394,-1263,-1535,1079,-232,-67
1572,18957898,358,-1253,-1564,1066,-232,-72
1573,18957908,348,-1249,-1543,1080,-211,-92
1574,18957918,368,-1261,-1528,1124,-203,-94
1575,18957928,377,-1241,-1541,1125,-232,-91
1576,18957938,356,-1238,-1540,1145,-249,-98
1577,18957948,374,-1249,-1522,1179,-231,-114
1578,18957958,383,-1276,-1536,1184,-256,-56
1579,18957968,359,-1287,-1549,1162,-296,-51
1580,18957978,326,-1311,-1534,1159,-298,-50
1581,18957988,345,-1297,-1542,1143,-273,-58
1582,18957998,378,-1283,-1521,1139,-238,-82
1583,18958008,353,-1292,-1493,1164,-227,-69
1584,18958018,368,-1292,-1492,1172,-239,-28
1585,18958028,402,-1264,-1505,1155,-233,-256
1586,18958025,402,-1265,-1505,1155,-233,-31
1587,18958035,377,-1282,-1505,1181,-237,-18
1588,18958045,396,-1279,-1478,1169,-227,-16
1589,18958055,422,-1263,-1488,1120,-227,-44
1590,18958065,411,-1264,-1508,1089,-253,-49
1591,18958075,368,-1285,-1534,1076,-264,-21
1592,18958085,369,-1298,-1509,1093,-253,-11
1593,18958095,388,-1299,-1497,1089,-255,-20
1594,18958105,355,-1304,-1509,1088,-270,-44
1595,18958115,361,-1292,-1498,1081,-271,-66
1596,18958125,376,-1291,-1506,1070,-262,-66
1597,18958135,389,-1303,-1473,1056,-269,-62
1598,18958145,349,-1310,-1498,1033,-278,-65
1599,18958155,376,-1298,-1493,1027,-275,-81
1600,18958165,400,-1298,-1481,1013,-279,-93
1601,18958175,358,-1330,-1506,1004,-290,-95
1602,18958185,334,-1306,-1510,1021,-283,-103
1603,18958195,383,-1291,-1502,1026,-274,-123
1604,18958205,363,-1285,-1516,1022,-272,-127
1605,18958215,337,-1278,-1525,1029,-270,-131
1606,18958225,349,-1272,-1565,1038,-266,-135
1607,18958235,412,-1288,-1514,1109,-227,-170
1608,18958245,360,-1286,-1493,1081,-231,-130
1609,18958255,366,-1299,-1473,1076,-240,-100
1610,18958265,391,-1293,-1487,1034,-275,-79
1611,18958275,394,-1286,-1516,1017,-287,-256
1612,18958272,394,-1287,-1516,1018,-288,-72
1613,18958282,351,-1309,-1511,1009,-284,-80
1614,18958292,379,-1295,-1514,1012,-293,-85
1615,18958302,404,-1289,-1529,1003,-304,-91
1616,18958312,377,-1282,-1537,1014,-292,-85
1617,18958322,366,-1294,-1542,1032,-272,-105
1618,18958332,400,-1282,-1533,1058,-251,-117
1619,18958342,383,-1278,-1522,1093,-233,-127
1620,18958352,370,-1299,-1505,1137,-201,-164
1621,18958362,361,-1306,-1515,1150,-207,-156
1622,18958372,381,-1290,-1538,1142,-248,-136
1623,18958382,352,-1273,-1538,1176,-231,-163
1624,18958392,345,-1291,-1520,1238,-201,-181
1625,18958402,407,-1251,-1511,1255,-199,-193
1626,18958412,407,-1296,-1508,1283,-209,-179
1627,18958422,375,-1326,-1480,1299,-194,-178
1628,18958432,397,-1334,-1451,1309,-185,-184
1629,18958442,432,-1348,-1427,1304,-177,-201
1630,18958452,406,-1364,-1422,1248,-189,-197
1631,18958462,400,-1348,-1444,1203,-198,-204
1632,18958472,414,-1339,-1463,1178,-202,-181
1633,18958482,420,-1343,-1450,1146,-200,-157
1634,18958492,376,-1318,-1456,1112,-200,-163
1635,18958502,396,-1317,-1477,1115,-224,-146
1636,18958512,412,-1307,-1468,1095,-229,-132
1637,18958522,382,-1329,-1457,1102,-222,-256
1638,18958518,382,-1329,-1457,1103,-223,-113
1639,18958528,375,-1340,-1446,1110,-212,-106
1640,18958538,407,-1336,-1452,1106,-209,-102
1641,18958548,411,-1345,-1447,1101,-183,-111
1642,18958558,392,-1345,-1439,1092,-167,-119
1643,18958568,415,-1318,-1466,1089,-184,-116
1644,18958578,429,-1334,-1492,1087,-192,-117
1645,18958588,431,-1316,-1456,1099,-195,-109
1646,18958598,404,-1316,-1461,1093,-198,-114
1647,18958608,442,-1320,-1452,1082,-209,-106
1648,18958618,437,-1324,-1453,1075,-219,-91
1649,18958628,420,-1324,-1470,1063,-230,-87
1650,18958638,434,-1331,-1460,1094,-211,-85
1651,18958648,473,-1334,-1453,1119,-198,-100
1652,18958658,444,-1343,-1447,1109,-201,-97
1653,18958668,422,-1343,-1457,1096,-206,-90
1654,18958678,453,-1330,-1446,1090,-200,-97
1655,18958688,463,-1334,-1434,1081,-203,-91
1656,18958698,419,-1340,-1447,1057,-224,-79
1657,18958708,429,-1335,-1453,1051,-242,-77
1658,18958718,461,-1341,-1445,1044,-243,-83
1659,18958728,435,-1324,-1452,1043,-263,-72
1660,18958738,407,-1336,-1470,1030,-285,-67
1661,18958748,414,-1336,-1475,1040,-291,-70
1662,18958758,440,-1332,-1459,1059,-284,-86
1663,18958768,415,-1349,-1441,1089,-254,-256
1664,18958765,415,-1350,-1441,1090,-255,-107
1665,18958775,426,-1332,-1451,1089,-248,-115
1666,18958785,445,-1322,-1449,1079,-264,-117
1667,18958795,425,-1324,-1466,1079,-272,-121
1668,18958805,403,-1350,-1437,1093,-273,-112
1669,18958815,416,-1348,-1450,1091,-265,-95
1670,18958825,447,-1341,-1428,1095,-271,-106
1671,18958835,415,-1338,-1430,1088,-262,-109
1672,18958845,411,-1347,-1446,1072,-267,-106
1673,18958855,445,-1340,-1461,1075,-267,-110
1674,18958865,436,-1338,-1457,1082,-257,-121
1675,18958875,429,-1332,-1446,1116,-261,-120
1676,18958885,462,-1352,-1468,1097,-264,-121
1677,18958895,447,-1325,-1461,1095,-275,-111
1678,18958905,432,-1340,-1440,1129,-263,-126
1679,18958915,455,-1365,-1435,1144,-237,-144
1680,18958925,481,-1350,-1425,1132,-242,-136
1681,18958935,450,-1368,-1416,1141,-251,-131
1682,18958945,435,-1371,-1435,1139,-265,-129
1683,18958955,456,-1368,-1433,1133,-270,-124
1684,18958965,460,-1363,-1426,1147,-259,-139
1685,18958975,423,-1364,-1445,1149,-252,-148
1686,18958985,431,-1358,-1439,1130,-249,-154
1687,18958995,458,-1346,-1422,1123,-231,-156
1688,18959005,454,-1350,-1423,1105,-217,-159
1689,18959015,437,-1379,-1415,1068,-218,-256
1690,18959012,438,-1380,-1415,1068,-218,-139
1691,18959022,458,-1365,-1409,1048,-206,-135
1692,18959032,459,-1358,-1410,1077,-203,-124
1693,18959042,440,-1355,-1415,1092,-223,-117
1694,18959052,453,-1355,-1439,1074,-235,-101
1695,18959062,472,-1337,-1431,1068,-237,-90
1696,18959072,461,-1338,-1443,1071,-227,-101
1697,18959082,445,-1355,-1450,1078,-219,-96
1698,18959092,474,-1349,-1430,1087,-213,-84
1699,18959102,482,-1370,-1424,1096,-202,-100
1700,18959112,457,-1370,-1411,1095,-195,-97
1701,18959122,461,-1367,-1400,1080,-195,-96
1702,18959132,489,-1364,-1420,1062,-193,-84
1703,18959142,469,-1380,-1413,1068,-179,-82
1704,18959152,447,-1365,-1411,1082,-163,-95
1705,18959162,473,-1363,-1397,1073,-164,-92
1706,18959172,483,-1358,-1389,1055,-179,-86
1707,18959182,448,-1373,-1404,1060,-201,-75
1708,18959192,457,-1364,-1416,1033,-220,-60
1709,18959202,484,-1364,-1414,1020,-235,-62
1710,18959212,478,-1371,-1412,1005,-243,-60
1711,18959222,451,-1357,-1423,997,-263,-53
1712,18959232,468,-1368,-1401,1003,-249,-63
1713,18959242,487,-1333,-1407,1010,-253,-58
1714,18959252,452,-1353,-1428,1010,-270,-55
1715,18959262,451,-1368,-1424,1006,-254,-256
1716,18959258,452,-1369,-1424,1007,-254,-57
1717,18959268,500,-1371,-1414,1017,-234,-86
1718,18959278,461,-1345,-1407,1016,-248,-61
1719,18959288,442,-1364,-1426,1001,-258,-72
1720,18959298,468,-1402,-1444,1011,-249,-59
1721,18959308,493,-1360,-1401,1044,-235,-106
1722,18959318,442,-1369,-1410,1052,-237,-77
1723,18959328,457,-1371,-1399,1067,-228,-92
1724,18959338,472,-1338,-1414,1044,-245,-79
1725,18959348,477,-1364,-1425,1056,-243,-83
1726,18959358,469,-1369,-1415,1071,-224,-89
1727,18959368,472,-1348,-1414,1067,-226,-84
1728,18959378,491,-1365,-1419,1072,-229,-78
1729,18959388,435,-1374,-1425,1064,-225,-84
1730,18959398,466,-1362,-1422,1072,-219,-92
1731,18959408,493,-1354,-1421,1079,-216,-89
1732,18959418,468,-1358,-1406,1076,-222,-85
1733,18959428,461,-1362,-1407,1076,-222,-87
1734,18959438,483,-1364,-1407,1076,-215,-79
1735,18959448,496,-1366,-1419,1067,-226,-56
1736,18959458,460,-1361,-1438,1075,-225,-59
1737,18959468,460,-1372,-1412,1090,-209,-57
1738,18959478,488,-1370,-1418,1103,-196,-45
1739,18959488,457,-1377,-1405,1125,-187,-40
1740,18959498,446,-1369,-1415,1120,-193,-45
1741,18959508,470,-1365,-1406,1118,-195,-256
1742,18959505,471,-1366,-1406,1118,-195,-30
1743,18959515,466,-1344,-1438,1126,-196,-29
1744,18959525,430,-1358,-1419,1175,-185,-18
1745,18959535,459,-1379,-1386,1201,-169,18
1746,18959545,487,-1408,-1383,1242,-185,56
1747,18959555,475,-1425,-1390,1217,-196,70
1748,18959565,445,-1432,-1397,1177,-198,78
1749,18959575,279,-726,-1498,1145,-205,99
1750,18959585,424,-1180,-1379,915,-246,266
1751,18959595,457,-1348,-1395,1174,-164,197
1752,18959605,497,-1341,-1372,1109,-169,-34
1753,18959615,522,-1324,-1348,1072,-208,36
1754,18959625,508,-1353,-1351,1083,-226,36
1755,18959635,487,-1369,-1351,1101,-222,13
1756,18959645,490,-1412,-1356,1097,-234,50
1757,18959655,474,-1425,-1362,1061,-240,56
1758,18959665,444,-1436,-1347,1045,-221,44
1759,18959675,454,-1438,-1328,1012,-205,32
1760,18959685,501,-1419,-1347,982,-209,8
1761,18959695,476,-1434,-1316,991,-214,-13
1762,18959705,489,-1411,-1302,1034,-250,-85
1763,18959715,518,-1438,-1315,1043,-310,-116
1764,18959725,481,-1425,-1349,1028,-385,-113
1765,18959735,439,-1413,-1391,982,-428,-146
1766,18959745,467,-1387,-1416,984,-405,-181
1767,18959755,498,-1373,-1424,1009,-363,-256
1768,18959752,499,-1374,-1424,1010,-364,-185
1769,18959762,533,-1349,-1395,1010,-338,-166
1770,18959772,524,-1350,-1387,997,-312,-154
1771,18959782,502,-1362,-1376,980,-291,-105
1772,18959792,469,-1392,-1398,970,-277,-82
1773,18959802,417,-1405,-1414,940,-269,-83
1774,18959812,403,-1411,-1437,909,-252,-56
1775,18959822,447,-1412,-1401,955,-229,-36
1776,18959832,434,-1404,-1396,973,-205,-10
1777,18959842,438,-1387,-1380,984,-189,-34
1778,18959852,499,-1330,-1359,993,-170,-28
1779,18959862,513,-1335,-1357,959,-170,-8
1780,18959872,471,-1354,-1372,921,-187,19
1781,18959882,468,-1368,-1375,919,-191,8
1782,18959892,512,-1395,-1364,925,-197,-26
1783,18959902,496,-1402,-1380,905,-216,-40
1784,18959912,492,-1382,-1385,883,-247,-46
1785,18959922,512,-1389,-1398,905,-281,-59
1786,18959932,498,-1335,-1415,847,-282,-113
1787,18959942,463,-1337,-1442,803,-275,-129
1788,18959952,410,-1309,-1473,794,-303,-82
1789,18959962,451,-1360,-1461,889,-320,-33
1790,18959972,399,-1372,-1425,927,-286,-10
1791,18959982,438,-1359,-1424,931,-293,-36
1792,18959992,448,-1423,-1469,902,-419,134
1793,18960002,373,-1386,-1514,850,-553,256
1794,18959999,374,-1386,-1514,851,-554,285
1795,18960009,382,-1336,-1512,1108,-522,189
1796,18960019,432,-1353,-1484,1213,-476,175
1797,18960029,446,-1352,-1449,1308,-479,216
1798,18960039,503,-1202,-1449,1314,-486,227
1799,18960049,440,-1384,-1406,1234,-513,318
1800,18960059,363,-1413,-1409,1238,-434,129
1801,18960069,383,-1401,-1475,1203,-401,70
1802,18960079,386,-1413,-1542,1222,-388,23
1803,18960089,404,-1424,-1642,1292,-314,-25
1804,18960099,433,-1463,-1757,1477,-213,-107
1805,18960109,452,-1474,-1831,1773,-9,-287
1806,18960119,516,-1468,-1792,2035,223,-510
1807,18960129,663,-1427,-1750,2003,483,-671
1808,18960139,783,-1294,-1706,1908,665,-759
1809,18960149,865,-1166,-1700,1922,724,-745
1810,18960159,904,-1212,-1633,2110,797,-614
1811,18960169,909,-1278,-1656,2295,885,-643
1812,18960179,447,-909,-1362,2566,977,-514
1813,18960189,1266,-1018,-1391,2984,1363,-834
1814,18960199,950,-1502,-1175,1833,1651,-317
1815,18960209,1089,-1485,-1075,2597,1821,-713
1816,18960219,973,-1437,-979,2037,1710,-495
1817,18960229,964,-1364,-880,1927,1683,-472
1818,18960239,990,-1325,-748,1805,1571,-443
1819,18960249,922,-1318,-598,1757,1361,-512
1820,18960245,922,-1318,-598,1758,1360,-296
1821,18960255,876,-1301,-494,1642,1070,-83
1822,18960265,844,-1311,-450,1460,772,109
1823,18960275,776,-1398,-423,1390,493,315
1824,18960285,646,-1562,-462,1433,237,499
1825,18960295,577,-1651,-415,1482,-46,618
1826,18960305,577,-1651,-479,1321,-283,493
1827,18960315,516,-1668,-537,1066,-454,443
1828,18960325,472,-1694,-591,979,-595,457
1829,18960335,514,-1670,-705,910,-769,370
1830,18960345,480,-1663,-848,987,-922,349
1831,18960355,440,-1626,-947,1124,-1021,310
1832,18960365,433,-1580,-1020,1216,-1015,256
1833,18960375,426,-1599,-1009,1290,-919,278
1834,18960385,390,-1672,-1028,1230,-844,318
1835,18960395,318,-1751,-1008,1100,-793,336
1836,18960405,359,-1771,-977,979,-727,245
1837,18960415,338,-1709,-935,855,-741,120
1838,18960425,340,-1513,-861,824,-796,-30
1839,18960435,370,-1322,-896,801,-871,-181
1840,18960445,406,-1018,-998,731,-923,-101
1841,18960455,374,-969,-963,972,-915,403
1842,18960465,283,-994,-942,1253,-740,1235
1843,18960475,41,-1175,-957,1228,-553,2081
1844,18960485,861,-2642,-546,1344,-197,2566
1845,18960495,-1249,-4552,-1719,1505,-312,3329
1846,18960492,-1249,-4552,-1719,1505,-313,3524
1847,18960502,-486,-2161,-2444,-2037,-2003,1042
1848,18960512,456,-937,-1853,-12,-836,-2103
1849,18960522,532,-1740,-1152,1111,326,-103
1850,18960532,171,-1895,-1505,1148,-200,867
1851,18960542,291,-1506,-1914,1090,-744,251
1852,18960552,-579,-814,-1527,1432,-369,244
1853,18960562,580,-1490,-1464,1601,-79,-108
1854,18960572,-54,-895,-1592,2322,78,143
1855,18960582,252,-1424,-1771,1542,-198,328
1856,18960592,160,-1442,-1604,1312,177,168
1857,18960602,286,-1364,-1523,1314,546,-161
1858,18960612,321,-1202,-1584,802,556,-401
1859,18960622,315,-1146,-1561,573,730,-320
1860,18960632,338,-1115,-1509,449,951,-292
1861,18960642,386,-1046,-1447,311,1084,-255
1862,18960652,410,-1065,-1407,218,1160,-118
1863,18960662,424,-1088,-1378,106,1238,37
1864,18960672,389,-1144,-1386,6,1285,202
1865,18960682,395,-1227,-1403,-96,1355,297
1866,18960692,418,-1323,-1378,-210,1492,354
1867,18960702,374,-1432,-1309,-398,1574,415
1868,18960712,386,-1460,-1286,-597,1625,496
1869,18960722,409,-1504,-1248,-789,1632,578
1870,18960732,385,-1566,-1244,-899,1646,647
1871,18960742,366,-1616,-1199,-927,1655,512
1872,18960738,367,-1617,-1199,-927,1654,655
1873,18960748,409,-1653,-1127,-822,1639,698
1874,18960758,432,-1656,-1039,-636,1557,754
1875,18960768,408,-1703,-969,-357,1416,800
1876,18960778,437,-1738,-892,-62,1236,850
1877,18960788,453,-1772,-830,225,1034,899
1878,18960798,442,-1816,-784,477,834,947
1879,18960808,404,-1874,-712,742,649,1058
1880,18960818,397,-1918,-685,1011,495,1180
1881,18960828,422,-1906,-671,1213,324,1160
1882,18960838,407,-1859,-697,1168,105,1075
1883,18960848,397,-1844,-741,1208,-66,1125
1884,18960858,391,-1992,-682,1299,-213,1284
1885,18960868,1018,-3519,-738,1623,-292,1488
1886,18960878,-399,-2536,-450,1953,-298,2365
1887,18960888,485,-2407,-978,2001,-951,-416
1888,18960898,273,-1525,-1090,490,-1085,-1301
1889,18960908,493,-1788,-860,1198,-243,104
1890,18960918,449,-1868,-825,1160,-229,280
1891,18960928,509,-1748,-909,806,-352,-15
1892,18960938,532,-1705,-1046,701,-368,-272
1893,18960948,572,-1560,-1120,726,-277,-352
1894,18960958,601,-1506,-1085,794,-170,-340
1895,18960968,615,-1679,-1071,1007,-121,-243
1896,18960978,547,-1593,-1262,844,-247,-358
1897,18960988,517,-1588,-1324,725,-234,-512
1898,18960985,518,-1589,-1324,726,-234,-336
1899,18960995,547,-1577,-1296,796,-103,-249
1900,18961005,552,-1411,-1259,858,-52,-147
1901,18961015,745,-1302,-1074,1080,-92,81
1902,18961025,640,-1287,-669,1457,-229,763
1903,18961035,485,-1715,-805,1848,-355,1560
1904,18961045,1180,-2349,-1434,1075,-928,1191
1905,18961055,82,-2157,-1280,1104,-1089,1146
1906,18961065,236,-1829,-1244,143,-1185,1004
1907,18961075,341,-1614,-1300,445,-1177,367
1908,18961085,328,-1569,-1458,311,-1154,311
1909,18961095,272,-1504,-1559,288,-1145,287
1910,18961105,278,-1453,-1572,353,-933,23
1911,18961115,249,-1444,-1520,504,-631,-265
1912,18961125,267,-1498,-1430,617,-424,-404
1913,18961135,303,-1385,-1413,451,-346,-465
1914,18961145,281,-1350,-1378,378,-333,-497
1915,18961155,337,-1526,-1406,332,-270,-447
1916,18961165,-105,-807,-1338,122,-261,-116
1917,18961175,385,-1226,-1337,332,-40,-761
1918,18961185,310,-1396,-1360,960,187,-709
1919,18961195,300,-1607,-1381,1139,92,-95
1920,18961205,337,-1625,-1444,1247,-162,-90
1921,18961215,364,-1531,-1426,1238,-255,-193
1922,18961225,382,-1507,-1278,1326,-194,-295
1923,18961235,501,-1405,-1290,1215,-115,-512
1924,18961232,502,-1405,-1290,1215,-115,-268
1925,18961242,474,-1358,-1266,962,-180,-176
1926,18961252,358,-1298,-1271,818,-216,106
1927,18961262,460,-1341,-1270,973,-308,-32
1928,18961272,390,-1385,-1257,1017,-288,189
1929,18961282,361,-1593,-1239,1226,-281,220
1930,18961292,259,-1693,-1315,1161,-335,265
1931,18961302,244,-1667,-1389,1015,-439,136
1932,18961312,248,-1581,-1382,974,-423,-18
1933,18961322,265,-1510,-1361,1026,-325,-174
1934,18961332,330,-1445,-1343,1067,-259,-268
1935,18961342,365,-1412,-1327,1081,-244,-257
1936,18961352,345,-1425,-1336,1058,-260,-225
1937,18961362,296,-1429,-1353,1048,-282,-174
1938,18961372,340,-1496,-1412,1059,-255,-131
1939,18961382,313,-1475,-1458,1009,-256,-73
1940,18961392,322,-1478,-1392,1113,-241,-131
1941,18961402,374,-1851,-1485,1198,-174,-161
1942,18961412,315,-1501,-1363,916,-244,69
1943,18961422,395,-1489,-1309,1279,-141,-176
1944,18961432,375,-1451,-1288,1064,-211,15
1945,18961442,392,-1395,-1269,1247,-174,-170
1946,18961452,384,-1446,-1268,1230,-203,-8
1947,18961462,336,-1492,-1318,1217,-219,-13
1948,18961472,319,-1517,-1324,1221,-187,17
1949,18961482,362,-1525,-1336,1244,-166,-256
1950,18961478,363,-1525,-1336,1244,-167,-32
1951,18961488,350,-1511,-1321,1260,-174,-63
1952,18961498,354,-1512,-1301,1251,-188,-88
1953,18961508,375,-1509,-1298,1237,-193,-86
1954,18961518,363,-1503,-1293,1210,-205,-78
1955,18961528,328,-1518,-1299,1169,-213,-52
1956,18961538,344,-1536,-1317,1154,-210,-35
1957,18961548,365,-1528,-1291,1145,-201,-37
1958,18961558,353,-1514,-1295,1137,-198,-68
1959,18961568,331,-1517,-1286,1152,-200,-62
1960,18961578,377,-1511,-1295,1149,-203,-64
1961,18961588,389,-1509,-1282,1146,-200,-55
1962,18961598,357,-1529,-1284,1139,-195,-37
1963,18961608,358,-1518,-1283,1126,-207,-32
1964,18961618,385,-1512,-1279,1108,-214,-24
1965,18961628,349,-1519,-1280,1105,-209,-21
1966,18961638,324,-1524,-1262,1092,-213,-22
1967,18961648,357,-1522,-1265,1086,-211,-23
1968,18961658,353,-1515,-1253,1070,-214,-23
1969,18961668,322,-1537,-1257,1055,-226,-13
1970,18961678,311,-1549,-1287,1021,-247,-8
1971,18961688,340,-1539,-1290,1012,-265,-26
1972,18961698,340,-1532,-1294,1002,-271,-61
1973,18961708,324,-1532,-1290,1007,-267,-81
1974,18961718,356,-1519,-1285,1010,-262,-79
1975,18961728,361,-1514,-1284,996,-271,-256
1976,18961725,362,-1514,-1284,996,-272,-64
1977,18961735,324,-1515,-1271,993,-289,-54
1978,18961745,354,-1508,-1298,975,-302,-57
1979,18961755,365,-1511,-1302,960,-315,-40
1980,18961765,331,-1512,-1308,947,-323,-24
1981,18961775,311,-1527,-1315,974,-306,-16
1982,18961785,352,-1511,-1316,1010,-252,-31
1983,18961795,341,-1528,-1320,1053,-202,-54
1984,18961805,327,-1528,-1284,1049,-179,-76
1985,18961815,345,-1557,-1273,1047,-169,-84
1986,18961825,355,-1507,-1301,993,-190,-71
1987,18961835,341,-1506,-1314,956,-199,-72
1988,18961845,340,-1524,-1282,1010,-168,-96
1989,18961855,360,-1505,-1284,975,-148,-87
1990,18961865,368,-1490,-1296,938,-171,-79
1991,18961875,331,-1509,-1305,936,-208,-69
1992,18961885,321,-1498,-1311,931,-205,-63
1993,18961895,364,-1512,-1324,958,-198,-81
1994,18961905,337,-1500,-1318,957,-197,-90
1995,18961915,343,-1526,-1323,982,-206,-81
1996,18961925,361,-1504,-1314,977,-219,-91
1997,18961935,368,-1513,-1297,993,-218,-89
1998,18961945,347,-1511,-1299,1007,-213,-85
1999,18961955,360,-1497,-1294,1009,-224,-80
2000,18961965,385,-1499,-1294,1010,-228,-79
2001,18961975,356,-1504,-1301,1002,-227,-256
2002,18961972,357,-1505,-1301,1003,-228,-74
2003,18961982,116,-1774,-1442,985,-244,-73
2004,18961992,450,-1280,-1404,514,-215,-558
2005,18962002,351,-1587,-1286,483,-249,28
2006,18962012,214,-1605,-1283,1039,-173,289
2007,18962022,355,-1547,-1333,1126,-271,-67
2008,18962032,352,-1442,-1334,921,-343,-234
2009,18962042,372,-1501,-1262,1112,-203,-55
2010,18962052,344,-1466,-1279,1023,-246,-101
2011,18962062,377,-1478,-1322,976,-289,-92
2012,18962072,362,-1495,-1338,975,-288,-47
2013,18962082,317,-1514,-1340,973,-281,-55
2014,18962092,346,-1481,-1354,979,-284,-84
2015,18962102,371,-1475,-1360,1006,-274,-101
2016,18962112,362,-1478,-1344,1041,-235,-114
2017,18962122,347,-1471,-1345,1042,-234,-105
2018,18962132,386,-1475,-1329,1038,-250,-104
2019,18962142,385,-1498,-1329,1033,-261,-97
2020,18962152,364,-1496,-1332,1034,-269,-90
2021,18962162,357,-1480,-1339,1033,-277,-99
2022,18962172,384,-1485,-1336,1036,-276,-107
2023,18962182,359,-1498,-1339,1036,-271,-102
2024,18962192,338,-1490,-1332,1030,-282,-103
2025,18962202,369,-1480,-1346,1026,-286,-113
2026,18962212,371,-1485,-1327,1046,-276,-130
2027,18962222,355,-1490,-1326,1039,-272,-256
2028,18962218,356,-1491,-1326,1040,-272,-132
2029,18962228,353,-1467,-1311,1037,-281,-130
2030,18962238,366,-1461,-1333,1012,-293,-126
2031,18962248,358,-1479,-1345,1001,-298,-112
2032,18962258,342,-1475,-1342,991,-306,-103
2033,18962268,366,-1460,-1344,992,-314,-103
2034,18962278,358,-1470,-1352,1008,-306,-102
2035,18962288,331,-1462,-1345,1036,-273,-107
2036,18962298,361,-1461,-1361,1054,-261,-115
2037,18962308,388,-1465,-1364,1064,-264,-112
2038,18962318,367,-1487,-1356,1089,-241,-102
2039,18962328,353,-1496,-1324,1099,-229,-97
2040,18962338,387,-1487,-1315,1091,-228,-101
2041,18962348,391,-1483,-1313,1079,-237,-98
2042,18962358,356,-1474,-1327,1064,-255,-93
2043,18962368,368,-1485,-1337,1062,-259,-91
2044,18962378,382,-1471,-1352,1061,-255,-95
2045,18962388,363,-1480,-1338,1065,-258,-99
2046,18962398,348,-1487,-1356,1060,-266,-89
2047,18962408,376,-1485,-1363,1062,-287,-96
2048,18962418,398,-1484,-1384,1084,-294,-126
2049,18962428,387,-1486,-1384,1122,-294,-153
2050,18962438,403,-1472,-1409,1148,-313,-170
2051,18962448,409,-1507,-1455,1191,-341,-159
2052,18962458,349,-1607,-1527,1229,-381,-135
2053,18962468,320,-1674,-1678,1340,-476,-256
2054,18962465,320,-1675,-1678,1340,-477,-170
2055,18962475,352,-1618,-1752,1478,-519,-308
2056,18962485,510,-1695,-1751,1698,-435,-465
2057,18962495,330,-1512,-1757,1810,-302,-308
2058,18962505,481,-1458,-1698,2320,-226,-407
2059,18962515,525,-1488,-1667,2546,-401,-468
2060,18962525,428,-1542,-1630,2781,-469,-166
2061,18962535,351,-1584,-1539,3147,-457,-110
2062,18962545,361,-1548,-1391,3404,-377,-278
2063,18962555,447,-1556,-1292,3427,-233,-422
2064,18962565,424,-1647,-1220,3270,-111,-301
2065,18962575,289,-1969,-1059,3033,-64,-112
2066,18962585,348,-2124,-916,2811,26,65
2067,18962595,375,-2096,-970,2280,67,-323
2068,18962605,284,-1938,-1187,1468,255,-587
2069,18962615,347,-1843,-1136,1035,302,-535
2070,18962625,352,-1853,-958,1091,638,-411
2071,18962635,355,-1854,-856,1214,877,-334
2072,18962645,383,-1760,-790,1283,787,-405
2073,18962655,435,-1738,-743,1493,608,-437
2074,18962665,457,-1662,-675,1581,437,-545
2075,18962675,472,-1628,-620,1621,363,-602
2076,18962685,510,-1601,-571,1637,299,-561
2077,18962695,534,-1567,-537,1614,213,-526
2078,18962705,518,-1548,-499,1525,126,-470
2079,18962715,528,-1548,-473,1398,59,-512
2080,18962712,528,-1549,-473,1398,59,-381
2081,18962722,551,-1570,-421,1257,-4,-301
2082,18962732,540,-1571,-439,1050,-51,-257
2083,18962742,537,-1560,-450,815,-123,-272
2084,18962752,524,-1502,-503,645,-208,-247
2085,18962762,534,-1467,-531,593,-256,-257
2086,18962772,534,-1420,-570,623,-235,-303
2087,18962782,558,-1418,-551,687,-197,-299
2088,18962792,631,-1384,-535,725,-199,-268
2089,18962802,613,-1361,-549,704,-259,-212
2090,18962812,593,-1368,-567,679,-333,-121
2091,18962822,599,-1402,-613,663,-397,-16
2092,18962832,601,-1450,-628,638,-437,40
2093,18962842,542,-1494,-663,593,-489,96
2094,18962852,529,-1519,-702,566,-541,158
2095,18962862,554,-1554,-706,577,-558,165
2096,18962872,524,-1571,-755,584,-556,129
2097,18962882,518,-1578,-779,571,-555,114
2098,18962892,548,-1561,-823,545,-582,127
2099,18962902,572,-1561,-855,547,-598,135
2100,18962912,508,-1603,-955,542,-616,189
2101,18962922,518,-1623,-974,571,-572,204
2102,18962932,524,-1648,-1001,699,-548,231
2103,18962942,498,-1640,-991,786,-587,234
2104,18962952,500,-1716,-1032,872,-647,202
2105,18962962,483,-1637,-1067,905,-674,256
2106,18962958,483,-1637,-1066,906,-674,274
2107,18962968,500,-1707,-1094,1008,-728,301
2108,18962978,451,-1717,-1153,998,-751,318
2109,18962988,436,-1790,-1215,1002,-727,330
2110,18962998,428,-1836,-1242,993,-650,308
2111,18963008,396,-1860,-1246,912,-573,271
2112,18963018,372,-1850,-1245,851,-526,220
2113,18963028,420,-1848,-1218,798,-484,178
2114,18963038,438,-1842,-1229,724,-435,159
2115,18963048,416,-1839,-1266,613,-410,131
2116,18963058,431,-1826,-1341,495,-409,152
2117,18963068,435,-1880,-1416,482,-402,219
2118,18963078,380,-1913,-1451,585,-421,317
2119,18963088,373,-1902,-1450,745,-442,273
2120,18963098,372,-1808,-1368,861,-426,165
2121,18963108,415,-1871,-1325,995,-363,103
2122,18963118,352,-1748,-1261,916,-381,123
2123,18963128,364,-1700,-1176,904,-357,1
2124,18963138,384,-1628,-1130,885,-318,-11
2125,18963148,353,-1606,-1082,891,-361,25
2126,18963158,311,-1577,-1048,876,-402,58
2127,18963168,326,-1661,-1026,864,-418,109
2128,18963178,305,-1700,-1074,767,-421,152
2129,18963188,245,-1634,-1071,472,-452,129
2130,18963198,253,-1633,-1097,502,-482,66
2131,18963208,310,-1539,-1090,552,-508,0
2132,18963205,310,-1540,-1089,553,-508,85
2133,18963215,281,-1673,-1093,722,-602,298
2134,18963225,249,-1742,-1057,829,-646,530
2135,18963235,250,-1704,-1107,586,-715,475
2136,18963245,281,-1656,-1140,427,-754,260
2137,18963255,252,-1613,-1183,317,-770,141
2138,18963265,270,-1570,-1240,290,-753,127
2139,18963275,151,-1624,-1295,280,-691,150
2140,18963285,91,-1616,-1398,238,-647,177
2141,18963295,83,-1303,-1260,640,-574,259
2142,18963305,231,-1670,-1313,456,-627,188
2143,18963315,179,-1577,-1321,547,-565,273
2144,18963325,171,-1564,-1291,593,-595,181
2145,18963335,196,-1540,-1297,591,-617,91
2146,18963345,236,-1481,-1289,591,-639,31
2147,18963355,185,-1480,-1317,576,-660,-5
2148,18963365,147,-1480,-1353,549,-696,-7
2149,18963375,190,-1428,-1374,546,-724,-21
2150,18963385,193,-1421,-1455,528,-685,-52
2151,18963395,172,-1377,-1434,598,-584,-80
2152,18963405,231,-1378,-1442,708,-444,-164
2153,18963415,234,-1356,-1446,687,-345,-215
2154,18963425,194,-1429,-1402,794,-277,-183
2155,18963435,160,-1475,-1378,823,-282,-128
2156,18963445,164,-1463,-1392,740,-320,-90
2157,18963455,168,-1496,-1399,677,-328,-256
2158,18963452,168,-1496,-1399,678,-329,-81
2159,18963462,123,-1481,-1423,601,-302,-85
2160,18963472,143,-1453,-1411,589,-231,-139
2161,18963482,165,-1476,-1409,667,-136,-186
2162,18963492,137,-1454,-1425,638,-78,-234
2163,18963502,136,-1452,-1415,660,38,-319
2164,18963512,182,-1425,-1399,710,148,-391
2165,18963522,218,-1413,-1382,746,173,-405
2166,18963532,190,-1406,-1410,750,136,-370
2167,18963542,197,-1439,-1449,746,106,-335
2168,18963552,228,-1411,-1433,775,99,-312
2169,18963562,205,-1439,-1436,820,77,-310
2170,18963572,173,-1461,-1430,860,22,-247
2171,18963582,222,-1415,-1447,882,-50,-276
2172,18963592,-44,-888,-1299,929,-66,-307
2173,18963602,580,-1448,-1363,1304,186,-815
2174,18963612,137,-1124,-1490,40,-69,-456
2175,18963622,415,-1398,-1423,1025,210,-126
2176,18963632,306,-1234,-1549,558,121,-444
2177,18963642,272,-1261,-1530,433,18,-282
2178,18963652,292,-1350,-1451,805,38,33
2179,18963662,282,-1425,-1371,1129,41,182
2180,18963672,227,-1447,-1317,1448,2,308
2181,18963682,267,-1404,-1300,1514,-108,152
2182,18963692,337,-1354,-1319,1406,-219,41
2183,18963702,295,-1393,-1344,1349,-271,0
2184,18963699,296,-1393,-1344,1349,-272,130
2185,18963709,307,-1623,-1445,1307,-347,201
2186,18963719,213,-1516,-1519,1021,-407,263
2187,18963729,235,-1498,-1540,915,-434,157
2188,18963739,235,-1441,-1505,974,-373,-10
2189,18963749,253,-1371,-1467,989,-313,-74
2190,18963759,298,-1375,-1440,1029,-290,-76
2191,18963769,277,-1398,-1463,1037,-278,-65
2192,18963779,243,-1434,-1479,1061,-253,-62
2193,18963789,248,-1421,-1456,1077,-235,-86
2194,18963799,279,-1420,-1445,1112,-189,-124
2195,18963809,243,-1388,-1411,1118,-183,-152
2196,18963819,267,-1411,-1428,1104,-186,-129
2197,18963829,268,-1403,-1463,1081,-205,-127
2198,18963839,263,-1422,-1470,1088,-178,-154
2199,18963849,253,-1392,-1464,1121,-123,-197
2200,18963859,286,-1406,-1432,1149,-102,-199
2201,18963869,308,-1407,-1418,1137,-114,-188
2202,18963879,274,-1402,-1417,1137,-133,-162
2203,18963889,291,-1429,-1407,1124,-130,-147
2204,18963899,322,-1412,-1406,1080,-125,-148
2205,18963909,79,-1232,-1417,1050,-122,-148
2206,18963919,323,-1343,-1479,967,-42,-346
2207,18963929,285,-1354,-1496,596,-44,-365
2208,18963939,316,-1421,-1390,1111,166,-150
2209,18963949,319,-1326,-1407,1187,117,-512
2210,18963945,319,-1327,-1407,1187,117,-291
2211,18963955,379,-1327,-1437,1032,68,-327
2212,18963965,373,-1312,-1419,835,-32,-221
2213,18963975,339,-1365,-1400,910,-40,-72
2214,18963985,344,-1376,-1357,1070,-50,-59
2215,18963995,388,-1359,-1336,1163,-82,-75
2216,18964005,386,-1350,-1364,1140,-144,-59
2217,18964015,344,-1398,-1381,1099,-174,0
2218,18964025,346,-1433,-1383,1098,-166,52
2219,18964035,378,-1455,-1371,1086,-184,32
2220,18964045,348,-1438,-1382,1054,-218,-21
2221,18964055,339,-1424,-1378,1065,-270,-42
2222,18964065,362,-1430,-1383,1081,-315,-21
2223,18964075,360,-1429,-1404,1066,-339,-1
2224,18964085,319,-1418,-1432,1028,-342,0
2225,18964095,346,-1404,-1452,1011,-330,-10
2226,18964105,349,-1417,-1459,1032,-319,-13
2227,18964115,334,-1407,-1446,1054,-272,-30
2228,18964125,296,-1442,-1483,1089,-231,-63
2229,18964135,310,-1430,-1498,1094,-170,-96
2230,18964145,344,-1418,-1447,1145,-58,-179
2231,18964155,325,-1454,-1440,1189,18,-244
2232,18964165,340,-1442,-1458,1068,0,-256
2233,18964175,360,-1420,-1451,1099,28,-258
2234,18964185,351,-1450,-1471,1093,91,-295
2235,18964195,323,-1401,-1502,1049,194,-512
2236,18964192,323,-1402,-1502,1050,194,-341
2237,18964202,370,-1394,-1460,1039,337,-456
2238,18964212,432,-1405,-1284,1093,535,-573
2239,18964222,460,-1302,-1107,966,627,-659
2240,18964232,636,-908,-933,881,590,-659
2241,18964242,792,-377,-1041,1152,248,-223
2242,18964252,732,-263,-602,2385,-485,744
2243,18964262,751,-3758,-1334,3613,-1277,2140
2244,18964272,-478,-2726,-1462,2348,-1854,4473
2245,18964282,-621,-2209,-1956,-517,-2061,2707
2246,18964292,92,-1425,-1862,-20,-1347,304
2247,18964302,239,-1532,-1540,945,-675,38
2248,18964312,150,-1529,-1376,1118,-367,402
2249,18964322,203,-1446,-1390,1258,-347,113
2250,18964332,210,-1393,-1328,1266,-263,15
2251,18964342,164,-1496,-1264,1306,-187,62
2252,18964352,98,-1557,-1261,1210,-236,71
2253,18964362,89,-1517,-1328,1040,-288,-83
2254,18964372,130,-1483,-1387,932,-274,-286
2255,18964382,206,-1510,-1398,880,-261,-443
2256,18964392,177,-1537,-1424,761,-288,-485
2257,18964402,187,-1642,-1499,575,-333,-576
2258,18964412,-323,-918,-1447,310,-436,-441
2259,18964422,535,-1427,-1483,45,-364,-1035
2260,18964432,293,-1528,-1395,819,-200,-1119
2261,18964442,231,-1555,-1416,598,-259,-768
2262,18964439,232,-1556,-1416,598,-260,-563
2263,18964449,269,-1667,-1485,322,-475,-698
2264,18964459,135,-1474,-1522,160,-560,-570
2265,18964469,205,-1423,-1518,312,-482,-682
2266,18964479,312,-1308,-1539,389,-425,-952
2267,18964489,327,-1262,-1501,541,-316,-882
2268,18964499,346,-1242,-1480,740,-231,-760
2269,18964509,383,-1217,-1487,863,-224,-668
2270,18964519,402,-1242,-1501,1028,-236,-541
2271,18964529,344,-1307,-1524,1199,-319,-394
2272,18964539,340,-1370,-1554,1323,-421,-315
2273,18964549,404,-1375,-1573,1410,-508,-345
2274,18964559,432,-1392,-1636,1487,-583,-361
2275,18964569,432,-1438,-1697,1549,-666,-359
2276,18964579,422,-1498,-1821,1536,-766,-299
2277,18964589,352,-1622,-1993,1480,-832,-219
2278,18964599,261,-1794,-2134,1482,-817,-104
2279,18964609,121,-1881,-2360,1433,-681,-89
2280,18964619,108,-2001,-2509,1511,-459,-179
2281,18964629,111,-2063,-2614,1710,-112,-380
2282,18964639,91,-2071,-2645,1991,234,-656
2283,18964649,124,-2095,-2597,2307,568,-971
2284,18964659,128,-2136,-2622,2437,817,-1159
2285,18964669,31,-2178,-2662,2425,1175,-1311
2286,18964679,41,-2220,-2586,2424,1861,-1665
2287,18964689,124,-2236,-2485,2326,2587,-2305
2288,18964685,124,-2237,-2485,2327,2587,-2058
2289,18964695,169,-2251,-2317,2082,3067,-2307
2290,18964705,215,-2211,-2287,1809,3423,-2561
2291,18964715,73,-2199,-2252,1556,3671,-2792
2292,18964725,206,-2093,-1977,1562,4475,-3227
2293,18964735,265,-1896,-1711,1535,5050,-3573
2294,18964745,269,-1762,-1503,1707,5342,-3710
2295,18964755,287,-1614,-1297,1987,5731,-3896
2296,18964765,480,-1490,-972,2318,6161,-4202
2297,18964775,437,-1355,-748,2419,6237,-4286
2298,18964785,614,-1242,-382,2517,6375,-4377
2299,18964795,737,-1170,-128,2447,6208,-4312
2300,18964805,641,-1152,-66,2120,5794,-4044
2301,18964815,549,-1125,32,1813,5587,-3843
2302,18964825,589,-927,317,1471,5679,-3959
2303,18964835,820,-736,706,1354,5588,-4098
2304,18964845,809,-612,745,1227,4994,-3860
2305,18964855,757,-535,712,1141,4501,-3510
2306,18964865,750,-454,828,1168,4375,-3489
2307,18964875,841,-295,1141,1292,4346,-3616
2308,18964885,912,-97,1454,1256,4012,-3703
2309,18964895,1017,90,1660,1144,3511,-3607
2310,18964905,1000,171,1730,1112,3033,-3460
2311,18964915,998,296,1768,953,2732,-3499
2312,18964925,1069,429,1827,754,2312,-3455
2313,18964935,1046,520,1757,529,1660,-3329
2314,18964932,1047,520,1758,529,1659,-3116
2315,18964942,911,586,1634,319,1024,-2662
2316,18964952,876,666,1643,299,654,-2332
2317,18964962,918,816,1870,387,402,-2093
2318,18964972,917,976,2169,437,130,-1917
2319,18964982,951,1093,2362,352,-283,-1625
2320,18964992,898,1174,2450,185,-976,-1021
2321,18965002,829,1236,2534,101,-1942,-208
2322,18965012,692,1219,2452,127,-2994,530
2323,18965022,646,1210,2435,192,-4046,1185
2324,18965032,602,1350,2474,196,-5287,1960
2325,18965042,468,1466,2450,350,-6653,2835
2326,18965052,175,1491,2265,709,-8024,3807
2327,18965062,-257,1495,1905,1132,-9433,5024
2328,18965072,-671,1373,1671,1486,-10556,6196
2329,18965082,-1102,1122,1217,1757,-11243,6960
2330,18965092,-1461,832,798,2012,-11456,7362
2331,18965102,-1671,663,416,2464,-11460,7581
2332,18965112,-1818,50,192,2814,-11437,7729
2333,18965122,-2156,-205,30,2207,-11199,7791
2334,18965132,-2496,-490,-296,881,-10751,7447
2335,18965142,-2868,-949,-659,-529,-10043,6727
2336,18965152,-3035,-1030,-1476,-2452,-9236,5956
2337,18965162,-3008,-1090,-2261,-3695,-8756,5265
2338,18965172,-3032,-1266,-3201,-3401,-8792,5497
2339,18965182,-2771,-1486,-3871,-2462,-8772,5378
2340,18965179,-2770,-1487,-3871,-2462,-8772,5450
2341,18965189,-2793,-1946,-4215,-1257,-8739,5435
2342,18965199,-2804,-2358,-4373,-744,-8305,5223
2343,18965209,-2574,-3151,-4378,-578,-7181,4457
2344,18965219,-2567,-2817,-4656,-1551,-6002,3238
2345,18965229,-2780,-2872,-4802,-1395,-4910,2077
2346,18965239,-2542,-2184,-4606,-736,-3133,365
2347,18965249,-3231,-1744,-3855,594,-1268,-833
2348,18965259,-1920,-1554,-4665,1383,919,-1492
2349,18965269,-2149,328,-4334,-2706,-625,-1803
2350,18965279,-991,-821,-2374,2726,892,-2300
2351,18965289,-1247,-765,-1820,3523,2619,-686
2352,18965299,-965,-897,-1738,3079,2992,-15
2353,18965309,-805,-1323,-1218,4229,2436,460
2354,18965319,-477,-1540,-1146,4028,1384,-275
2355,18965329,-414,-1258,-1473,1794,267,-684
2356,18965339,-479,-1357,-1577,1409,-318,-201
2357,18965349,-432,-1279,-1752,1223,-581,-173
2358,18965359,-401,-1225,-1915,982,-565,-241
2359,18965369,-479,-1346,-1952,1143,-435,32
2360,18965379,-517,-1425,-2004,1134,-348,246
2361,18965389,-546,-1440,-2073,891,-305,199
2362,18965399,-614,-1373,-2173,635,-270,53
2363,18965409,-614,-1367,-2210,559,-221,-130
2364,18965419,-574,-1330,-2237,565,-113,-355
2365,18965429,-576,-1284,-2295,606,-11,-768
2366,18965425,-576,-1285,-2295,607,-12,-562
2367,18965435,-601,-1297,-2368,789,136,-710
2368,18965445,-645,-1360,-2461,1118,374,-744
2369,18965455,-694,-1403,-2579,1396,668,-880
2370,18965465,-811,-1445,-2671,1561,986,-1117
2371,18965475,-916,-1666,-2820,1585,1391,-1341
2372,18965485,-1070,-1745,-3072,1333,1819,-1430
2373,18965495,-1276,-1974,-3230,1348,2306,-1672
2374,18965505,-1459,-2143,-3543,1338,2944,-2048
2375,18965515,-1742,-2315,-3711,1318,3636,-2615
2376,18965525,-1941,-2322,-3799,1375,5027,-3391
2377,18965535,-2205,-2124,-3732,1416,6618,-4195
2378,18965545,-2289,-1922,-3233,1734,8187,-4993
2379,18965555,-2210,-1617,-2481,2005,9377,-5540
2380,18965565,-2106,-1236,-1825,2115,10195,-5787
2381,18965575,-1840,-1203,-1368,2361,10879,-5955
2382,18965585,-1299,-1019,-1179,2455,11279,-6158
2383,18965595,-878,-952,-914,2501,10532,-6207
2384,18965605,-756,-791,-736,2478,9509,-5882
2385,18965615,-551,-588,-482,2195,8736,-5365
2386,18965625,-243,-243,-53,1923,8177,-4831
2387,18965635,-78,-95,91,2114,7612,-4297
2388,18965645,62,-110,315,2625,6989,-3906
2389,18965655,400,-12,881,2975,6676,-3802
2390,18965665,538,58,1121,2727,5946,-3648
2391,18965675,761,189,1416,2286,5281,-3586
2392,18965672,761,189,1417,2287,5281,-3580
2393,18965682,928,346,1530,1784,4614,-3459
2394,18965692,1026,521,1491,1374,3935,-3367
2395,18965702,1044,629,1470,1258,3556,-3383
2396,18965712,1125,737,1428,1349,3386,-3372
2397,18965722,1129,895,1468,1383,3055,-3147
2398,18965732,1104,985,1461,1585,2680,-2811
2399,18965742,1117,998,1522,1646,2292,-2458
2400,18965752,1171,994,1557,1573,1923,-2043
2401,18965762,1177,1005,1621,1440,1445,-1550
2402,18965772,1156,920,1691,1434,1006,-1204
2403,18965782,1131,882,1585,1311,576,-985
2404,18965792,1112,852,1421,1184,176,-782
2405,18965802,1084,811,1323,1227,31,-649
2406,18965812,1113,736,1350,1402,34,-570
2407,18965822,1176,697,1389,1457,-80,-514
2408,18965832,1344,690,1425,1275,-321,-560
2409,18965842,1417,766,1345,939,-601,-566
2410,18965852,1505,788,1344,787,-993,-428
2411,18965862,1650,793,1390,832,-1470,-207
2412,18965872,1740,821,1326,734,-2076,29
2413,18965882,1698,837,1019,571,-2596,207
2414,18965892,1712,890,852,577,-2742,367
2415,18965902,1778,740,787,819,-2723,579
2416,18965912,1768,691,597,759,-2606,705
2417,18965922,1764,629,407,577,-2374,512
2418,18965919,1765,629,407,578,-2374,720
2419,18965929,1798,577,292,612,-2182,794
2420,18965939,1864,519,297,781,-2028,840
2421,18965949,1933,431,411,985,-1933,892
2422,18965959,2035,411,543,1130,-2052,999
2423,18965969,2014,386,250,1230,-2430,1134
2424,18965979,2220,950,343,1484,-2654,1544
2425,18965989,2130,660,500,3065,-2661,2537
2426,18965999,1832,263,406,4091,-2883,3047
2427,18966009,1813,-295,410,4152,-2845,2680
2428,18966019,1816,-322,89,3402,-2386,2119
2429,18966029,1674,-282,-63,2849,-2256,1915
2430,18966039,1769,-175,-83,2532,-2176,1824
2431,18966049,1819,-197,-70,2219,-2154,1873
2432,18966059,1951,-195,28,1906,-2288,2072
2433,18966069,1925,-174,158,1592,-2690,2538
2434,18966079,2044,-141,107,1304,-2610,2649
2435,18966089,2010,249,90,1097,-2369,2569
2436,18966099,2161,186,-2,1418,-2091,2622
2437,18966109,2020,-124,-66,1837,-2207,2862
2438,18966119,1884,-200,-139,1964,-2280,2934
2439,18966129,1815,-287,-207,1865,-2375,3290
2440,18966139,1870,-359,-220,1552,-2632,3794
2441,18966149,1645,-422,-186,1056,-3197,4440
2442,18966159,1503,-508,-196,750,-3499,4788
2443,18966169,1401,-567,-179,539,-3464,4866
2444,18966165,1402,-568,-179,539,-3464,4871
2445,18966175,1246,-644,-261,265,-3390,4876
2446,18966185,776,-933,-434,7,-3335,4833
2447,18966195,510,-1111,-911,-298,-3205,4722
2448,18966205,-254,-864,-1155,-426,-3903,4535
2449,18966215,-329,-1131,-1491,-1228,-7420,6063
2450,18966225,791,-1585,-1207,960,-5093,4969
2451,18966235,290,-1545,-1160,1214,-5318,4522
2452,18966245,475,-1447,-1071,1021,-4585,3766
2453,18966255,148,-1536,-993,748,-3816,3466
2454,18966265,-207,-1880,-981,129,-3174,3429
2455,18966275,-468,-1976,-1301,-1176,-2945,3366
2456,18966285,-853,-2003,-1773,-2059,-3046,2897
2457,18966295,-1102,-2009,-2121,-2469,-3356,2280
2458,18966305,-1199,-1741,-2528,-2150,-3714,1474
2459,18966315,-789,-1723,-2351,-1080,-3629,578
2460,18966325,-593,-1567,-2068,-28,-3004,-32
2461,18966335,-302,-1483,-1881,506,-1980,-162
2462,18966345,-161,-1417,-1782,701,-1022,102
2463,18966355,-160,-1508,-1596,921,-146,453
2464,18966365,-210,-1651,-1479,1011,357,659
2465,18966375,-269,-1709,-1491,797,418,749
2466,18966385,-362,-1775,-1583,653,208,777
2467,18966395,-408,-1793,-1663,599,-102,635
2468,18966405,-399,-1714,-1723,563,-268,390
2469,18966415,-308,-1619,-1731,664,-270,0
2470,18966412,-307,-1620,-1731,664,-271,194
2471,18966422,-210,-1563,-1682,834,-201,113
2472,18966432,-168,-1516,-1620,929,-157,106
2473,18966442,-120,-1500,-1581,905,-182,174
2474,18966452,-48,-1457,-1588,765,-286,299
2475,18966462,-56,-1424,-1607,605,-452,453
2476,18966472,-148,-1432,-1700,477,-652,642
2477,18966482,-197,-1434,-1750,445,-884,771
2478,18966492,-216,-1408,-1767,424,-1080,755
2479,18966502,-297,-1437,-1799,382,-1201,631
2480,18966512,-332,-1439,-1872,308,-1250,527
2481,18966522,-365,-1355,-1958,215,-1176,406
2482,18966532,-375,-1283,-1962,326,-965,273
2483,18966542,-367,-1196,-1877,570,-732,268
2484,18966552,-299,-1135,-1796,762,-542,273
2485,18966562,-260,-1102,-1731,845,-430,304
2486,18966572,-290,-1091,-1686,884,-413,384
2487,18966582,-295,-1061,-1656,923,-467,449
2488,18966592,-258,-1039,-1663,1032,-518,505
2489,18966602,-299,-1089,-1646,1225,-576,595
2490,18966612,-355,-1169,-1603,1427,-616,700
2491,18966622,-380,-1203,-1589,1450,-650,702
2492,18966632,-345,-1210,-1588,1390,-650,582
2493,18966642,-388,-1184,-1588,1327,-630,480
2494,18966652,-373,-1182,-1581,1365,-577,397
2495,18966662,-367,-1171,-1580,1390,-558,256
2496,18966659,-367,-1172,-1580,1390,-559,371
2497,18966669,-375,-1185,-1578,1441,-571,350
2498,18966679,-403,-1198,-1578,1519,-586,343
2499,18966689,-384,-1220,-1559,1576,-600,376
2500,18966699,-401,-1234,-1562,1641,-618,419
2501,18966709,-451,-1232,-1538,1726,-639,455
2502,18966719,-452,-1277,-1514,1779,-687,525
2503,18966729,-446,-1330,-1508,1740,-736,572
2504,18966739,-495,-1361,-1502,1677,-750,536
2505,18966749,-521,-1430,-1540,1606,-725,440
2506,18966759,-587,-1546,-1622,1396,-656,384
2507,18966769,-535,-1446,-1619,989,-615,127
2508,18966779,-538,-1150,-1641,440,-459,-62
2509,18966789,-497,-1307,-1534,1067,-380,12
2510,18966799,-594,-1105,-1532,982,-388,140
2511,18966809,-581,-1392,-1535,1205,-494,98
2512,18966819,-510,-1231,-1559,830,-553,68
2513,18966829,-544,-1269,-1504,1137,-459,79
2514,18966839,-514,-1239,-1510,1028,-432,-4
2515,18966849,-542,-1241,-1487,1109,-405,33
2516,18966859,-496,-1224,-1454,1093,-395,0
2517,18966869,-475,-1221,-1482,1075,-406,-12
2518,18966879,-523,-1248,-1463,1047,-404,-12
2519,18966889,-591,-1246,-1474,967,-383,0
2520,18966899,-566,-1236,-1455,948,-363,-21
2521,18966909,-539,-1254,-1462,915,-359,-256
2522,18966905,-539,-1254,-1462,916,-359,-65
2523,18966915,-546,-1239,-1484,898,-373,-59
2524,18966925,-537,-1237,-1520,947,-361,-60
2525,18966935,-561,-1233,-1546,904,-313,-105
2526,18966945,-576,-1239,-1529,918,-274,-115
2527,18966955,-626,-1271,-1550,969,-313,-88
2528,18966965,-544,-1213,-1534,999,-344,-128
2529,18966975,-520,-1192,-1560,1023,-366,-168
2530,18966985,-502,-1175,-1560,1065,-355,-174
2531,18966995,-489,-1153,-1518,1088,-313,-199
2532,18967005,-460,-1172,-1498,1098,-281,-216
2533,18967015,-451,-1177,-1500,1048,-257,-225
2534,18967025,-488,-1156,-1533,954,-253,-202
2535,18967035,-466,-1190,-1547,953,-263,-134
2536,18967045,-503,-1210,-1534,1071,-250,-33
2537,18967055,-506,-1255,-1512,1050,-276,-7
2538,18967065,-501,-1236,-1504,1044,-280,-41
2539,18967075,-464,-1237,-1519,1041,-308,-78
2540,18967085,-520,-1256,-1522,1051,-321,-79
2541,18967095,-530,-1246,-1533,1024,-310,-109
2542,18967105,-514,-1239,-1549,996,-292,-127
2543,18967115,-510,-1204,-1523,945,-268,-142
2544,18967125,-542,-1182,-1536,956,-248,-159
2545,18967135,-549,-1242,-1501,1063,-262,-93
2546,18967145,-551,-1242,-1501,1039,-309,-24
2547,18967155,-560,-1254,-1502,1040,-335,-256
2548,18967152,-559,-1255,-1502,1041,-335,-41
2549,18967162,-572,-1243,-1500,1040,-301,-83
2550,18967172,-537,-1239,-1488,1067,-279,-74
2551,18967182,-524,-1234,-1483,1051,-272,-95
2552,18967192,-551,-1223,-1501,1022,-277,-107
2553,18967202,-540,-1203,-1495,1015,-265,-114
2554,18967212,-517,-1216,-1480,1062,-265,-81
2555,18967222,-542,-1221,-1506,1041,-284,-59
2556,18967232,-554,-1230,-1513,1018,-314,-39
2557,18967242,-537,-1218,-1549,1000,-326,-49
2558,18967252,-532,-1227,-1544,994,-313,-81
2559,18967262,-553,-1233,-1531,995,-293,-104
2560,18967272,-542,-1225,-1545,987,-275,-109
2561,18967282,-510,-1215,-1539,963,-264,-122
2562,18967292,-539,-1218,-1556,954,-247,-153
2563,18967302,-550,-1209,-1550,985,-203,-180
2564,18967312,-502,-1203,-1532,1024,-174,-192
2565,18967322,-508,-1212,-1517,1063,-180,-131
2566,18967332,-523,-1226,-1526,1072,-207,-84
2567,18967342,-521,-1229,-1540,1054,-239,-94
2568,18967352,-486,-1226,-1528,1031,-247,-108
2569,18967362,-528,-1237,-1545,1016,-247,-106
2570,18967372,-536,-1236,-1547,1004,-244,-114
2571,18967382,-517,-1230,-1555,970,-238,-144
2572,18967392,-517,-1235,-1561,945,-224,-176
2573,18967402,-543,-1235,-1554,930,-197,-256
