sequence,timestamp_ms,accel_x,accel_y,accel_z,gyro_x,gyro_y,gyro_z
9360,19031781,253,-1320,-1492,1045,-215,-78
9361,19031791,289,-1313,-1486,1041,-219,-81
9362,19031801,258,-1335,-1512,1030,-226,-78
9363,19031811,234,-1327,-1505,1030,-232,-73
9364,19031821,272,-1306,-1501,1036,-221,-77
9365,19031831,276,-1318,-1508,1040,-224,-78
9366,19031841,239,-1309,-1502,1035,-228,-70
9367,19031851,265,-1336,-1511,1051,-220,-76
9368,19031861,289,-1312,-1505,1037,-222,-72
9369,19031871,261,-1331,-1507,1060,-211,-77
9370,19031881,250,-1319,-1499,1045,-217,-78
9371,19031891,276,-1328,-1501,1057,-215,-73
9372,19031901,274,-1316,-1489,1042,-213,-73
9373,19031911,239,-1319,-1493,1046,-219,-68
9374,19031921,254,-1329,-1507,1032,-224,-74
9375,19031931,294,-1323,-1514,1035,-228,-71
9376,19031941,264,-1326,-1515,1037,-226,-71
9377,19031951,246,-1324,-1506,1049,-215,-75
9378,19031961,272,-1324,-1510,1051,-218,-71
9379,19031971,274,-1313,-1492,1060,-201,-77
9380,19031981,238,-1322,-1503,1060,-201,-79
9381,19031991,254,-1310,-1516,1049,-215,-77
9382,19032001,279,-1321,-1489,1052,-213,-75
9383,19032011,264,-1318,-1500,1050,-212,-78
9384,19032021,267,-1329,-1498,1041,-221,-71
9385,19032031,258,-1323,-1498,1034,-227,-256
9386,19032028,258,-1324,-1498,1034,-228,-69
9387,19032038,265,-1320,-1525,1035,-229,-73
9388,19032048,239,-1324,-1499,1041,-221,-72
9389,19032058,267,-1310,-1503,1043,-221,-73
9390,19032068,277,-1330,-1503,1046,-218,-76
9391,19032078,265,-1322,-1501,1053,-213,-80
9392,19032088,251,-1311,-1496,1048,-218,-76
9393,19032098,280,-1317,-1495,1043,-224,-72
9394,19032108,283,-1318,-1501,1039,-225,-74
9395,19032118,241,-1317,-1493,1035,-226,-73
9396,19032128,254,-1316,-1501,1034,-225,-75
9397,19032138,281,-1331,-1503,1034,-228,-79
9398,19032148,263,-1316,-1506,1033,-230,-75
9399,19032158,246,-1314,-1492,1037,-225,-77
9400,19032168,274,-1318,-1511,1042,-222,-72
9401,19032178,276,-1324,-1499,1044,-220,-73
9402,19032188,246,-1319,-1498,1045,-218,-76
9403,19032198,254,-1332,-1494,1043,-217,-74
9404,19032208,262,-1317,-1500,1039,-222,-76
9405,19032218,262,-1325,-1517,1036,-224,-75
9406,19032228,245,-1326,-1511,1035,-224,-74
9407,19032238,277,-1316,-1497,1037,-225,-75
9408,19032248,273,-1316,-1504,1039,-223,-72
9409,19032258,235,-1322,-1498,1047,-217,-73
9410,19032268,263,-1318,-1496,1048,-217,-78
9411,19032278,264,-1316,-1507,1048,-217,-256
9412,19032274,265,-1316,-1507,1049,-218,-79
9413,19032284,260,-1313,-1499,1048,-218,-77
9414,19032294,244,-1316,-1513,1054,-216,-76
9415,19032304,272,-1320,-1494,1054,-216,-73
9416,19032314,283,-1327,-1492,1051,-214,-74
9417,19032324,239,-1342,-1497,1044,-220,-71
9418,19032334,266,-1317,-1507,1042,-218,-73
9419,19032344,296,-1325,-1508,1043,-215,-76
9420,19032354,247,-1316,-1506,1041,-217,-76
9421,19032364,244,-1323,-1503,1041,-217,-74
9422,19032374,274,-1306,-1489,1043,-218,-72
9423,19032384,265,-1310,-1507,1050,-216,-73
9424,19032394,248,-1330,-1495,1054,-212,-75
9425,19032404,257,-1333,-1490,1049,-218,-72
9426,19032414,288,-1318,-1500,1046,-218,-74
9427,19032424,261,-1317,-1507,1046,-218,-76
9428,19032434,248,-1321,-1508,1044,-220,-77
9429,19032444,266,-1315,-1512,1047,-215,-76
9430,19032454,256,-1308,-1505,1050,-211,-79
9431,19032464,239,-1313,-1490,1045,-215,-73
9432,19032474,257,-1304,-1503,1047,-219,-76
9433,19032484,288,-1320,-1494,1051,-211,-79
9434,19032494,265,-1330,-1481,1048,-210,-78
9435,19032504,251,-1321,-1499,1029,-235,-72
9436,19032514,263,-1332,-1513,1030,-232,-68
9437,19032524,264,-1307,-1502,1031,-224,-256
9438,19032521,265,-1308,-1502,1032,-224,-75
9439,19032531,246,-1322,-1505,1040,-226,-77
9440,19032541,268,-1322,-1530,1036,-227,-78
9441,19032551,279,-1316,-1526,1041,-226,-72
9442,19032561,256,-1325,-1508,1048,-214,-83
9443,19032571,242,-1326,-1494,1048,-215,-77
9444,19032581,260,-1307,-1504,1042,-220,-77
9445,19032591,275,-1325,-1502,1048,-217,-80
9446,19032601,245,-1313,-1507,1050,-221,-79
9447,19032611,258,-1312,-1504,1065,-198,-85
9448,19032621,281,-1320,-1497,1061,-218,-75
9449,19032631,271,-1323,-1509,1051,-210,-84
9450,19032641,240,-1334,-1496,1055,-214,-66
9451,19032651,288,-1303,-1509,1054,-206,-87
9452,19032661,264,-1315,-1512,1048,-220,-73
9453,19032671,248,-1321,-1518,1046,-216,-75
9454,19032681,262,-1325,-1508,1060,-209,-80
9455,19032691,286,-1329,-1499,1058,-204,-75
9456,19032701,254,-1325,-1479,1055,-216,-75
9457,19032711,241,-1316,-1511,1046,-219,-73
9458,19032721,262,-1327,-1498,1053,-215,-71
9459,19032731,276,-1323,-1504,1051,-208,-76
9460,19032741,244,-1312,-1505,1055,-213,-69
9461,19032751,276,-1330,-1493,1054,-214,-78
9462,19032761,275,-1330,-1513,1056,-211,-77
9463,19032771,257,-1313,-1500,1055,-208,-256
9464,19032768,257,-1314,-1500,1056,-209,-73
9465,19032778,252,-1321,-1503,1052,-213,-74
9466,19032788,287,-1324,-1505,1052,-207,-77
9467,19032798,276,-1324,-1481,1057,-198,-76
9468,19032808,257,-1307,-1501,1055,-205,-83
9469,19032818,251,-1325,-1511,1046,-217,-75
9470,19032828,288,-1328,-1505,1053,-200,-68
9471,19032838,249,-1329,-1496,1061,-197,-70
9472,19032848,265,-1304,-1515,1052,-214,-104
9473,19032858,273,-1335,-1497,1056,-204,-60
9474,19032868,278,-1306,-1496,1054,-206,-73
9475,19032878,252,-1334,-1498,1061,-209,-78
9476,19032888,267,-1315,-1504,1062,-201,-62
9477,19032898,281,-1318,-1505,1056,-215,-69
9478,19032908,258,-1339,-1486,1073,-185,-65
9479,19032918,262,-1320,-1496,1065,-204,-84
9480,19032928,284,-1301,-1505,1047,-219,-80
9481,19032938,282,-1329,-1489,1059,-206,-70
9482,19032948,245,-1321,-1490,1051,-210,-80
9483,19032958,276,-1358,-1486,1046,-216,-81
9484,19032968,284,-1298,-1517,1024,-217,-78
9485,19032978,260,-1349,-1497,1058,-224,-89
9486,19032988,248,-1334,-1515,1030,-204,-83
9487,19032998,263,-1303,-1494,1045,-238,-95
9488,19033008,277,-1315,-1478,1060,-199,-115
9489,19033018,250,-1346,-1492,1047,-232,-256
9490,19033014,250,-1347,-1492,1048,-233,-97
9491,19033024,270,-1326,-1501,1027,-240,-105
9492,19033034,306,-1327,-1516,1060,-213,-110
9493,19033044,285,-1340,-1480,1051,-220,-105
9494,19033054,284,-1336,-1483,1042,-207,-120
9495,19033064,280,-1334,-1487,1004,-243,-93
9496,19033074,278,-1366,-1527,1026,-218,-127
9497,19033084,183,-1395,-1537,997,-235,-126
9498,19033094,208,-1513,-1605,1038,-238,-222
9499,19033104,147,-1386,-1602,1012,-246,-356
9500,19033114,275,-1433,-1504,1158,-260,-376
9501,19033124,127,-1419,-1732,1056,-424,-244
9502,19033134,271,-1349,-1672,1031,-181,-554
9503,19033144,260,-1567,-1653,1115,111,-554
9504,19033154,18,-1779,-1786,811,92,-238
9505,19033164,-12,-1608,-1809,447,-116,-217
9506,19033174,92,-1679,-1665,991,98,-358
9507,19033184,60,-1648,-1529,1241,258,-434
9508,19033194,83,-1823,-1341,1411,183,-455
9509,19033204,3,-1614,-1368,1108,-70,-426
9510,19033214,132,-1676,-1227,1220,-298,-761
9511,19033224,87,-1807,-1359,1071,-413,-822
9512,19033234,62,-1520,-1405,871,-535,-719
9513,19033244,254,-1372,-1579,747,-648,-1018
9514,19033254,186,-1222,-1468,586,-664,-1275
9515,19033264,-20,-1272,-1538,653,-655,-1281
9516,19033261,-19,-1273,-1538,654,-655,-1137
9517,19033271,-382,-1774,-1102,1146,-470,-1065
9518,19033281,-225,-1930,-1012,1987,-79,-898
9519,19033291,-227,-2145,-644,2616,-523,-921
9520,19033301,125,-1893,-707,2645,-654,-1744
9521,19033311,162,-1728,-828,2052,-1058,-1803
9522,19033321,211,-1625,-821,1867,-1297,-1781
9523,19033331,258,-1358,-897,1497,-1310,-1843
9524,19033341,389,-1165,-998,1239,-1274,-2001
9525,19033351,453,-1025,-1053,1070,-1285,-1965
9526,19033361,346,-1083,-1096,1065,-1385,-1728
9527,19033371,280,-1125,-1189,1152,-1472,-1483
9528,19033381,363,-1132,-1276,1277,-1491,-1473
9529,19033391,390,-1080,-1289,1321,-1516,-1471
9530,19033401,475,-896,-1373,1196,-1529,-1449
9531,19033411,640,-880,-1525,1157,-1542,-1407
9532,19033421,571,-775,-1683,1089,-1551,-1217
9533,19033431,597,-826,-1799,1415,-1481,-1087
9534,19033441,633,-802,-1852,1446,-1475,-903
9535,19033451,665,-897,-1938,1416,-1415,-670
9536,19033461,588,-925,-1952,1272,-1297,-476
9537,19033471,590,-947,-1919,1326,-1142,-389
9538,19033481,654,-913,-1861,1426,-1093,-336
9539,19033491,760,-920,-1765,1526,-1093,-252
9540,19033501,782,-966,-1721,1505,-1126,-84
9541,19033511,823,-1171,-1718,1401,-1172,0
9542,19033508,824,-1171,-1718,1402,-1172,108
9543,19033518,828,-939,-1725,1063,-1178,200
9544,19033528,883,-985,-1707,1017,-1230,291
9545,19033538,865,-936,-1691,1009,-1165,366
9546,19033548,831,-1023,-1637,1137,-947,496
9547,19033558,705,-1145,-1575,1348,-689,553
9548,19033568,557,-1271,-1480,1501,-520,551
9549,19033578,488,-1367,-1414,1572,-474,452
9550,19033588,216,-1754,-1607,1521,-484,277
9551,19033598,170,-1337,-1682,605,-359,223
9552,19033608,237,-1521,-1629,182,-125,-479
9553,19033618,462,-1240,-1486,930,13,-342
9554,19033628,426,-1234,-1530,620,1,-693
9555,19033638,445,-1205,-1458,869,-44,-443
9556,19033648,447,-1167,-1462,755,-106,-510
9557,19033658,430,-1153,-1452,742,-82,-523
9558,19033668,364,-1185,-1467,682,-4,-545
9559,19033678,340,-1201,-1456,624,104,-606
9560,19033688,368,-1152,-1447,512,193,-662
9561,19033698,365,-1157,-1478,382,219,-659
9562,19033708,334,-1084,-1476,259,243,-665
9563,19033718,386,-1039,-1531,39,218,-657
9564,19033728,322,-1024,-1646,147,162,-568
9565,19033738,226,-1048,-1705,354,142,-474
9566,19033748,179,-1123,-1767,483,196,-470
9567,19033758,177,-1217,-1796,629,175,-512
9568,19033754,177,-1218,-1796,630,175,-472
9569,19033764,138,-1273,-1880,576,16,-500
9570,19033774,12,-1335,-1960,551,-167,-420
9571,19033784,-54,-1338,-2084,603,-354,-318
9572,19033794,-28,-1272,-2156,736,-437,-421
9573,19033804,34,-1133,-2060,977,-280,-605
9574,19033814,275,-1462,-1741,1346,36,-707
9575,19033824,-130,-1390,-1697,1626,140,-537
9576,19033834,188,-1424,-1943,1104,-198,-773
9577,19033844,180,-972,-2374,-530,-344,-1188
9578,19033854,-99,-1161,-2329,148,-358,47
9579,19033864,69,-1223,-2200,995,-154,166
9580,19033874,153,-1111,-1954,1439,34,-56
9581,19033884,279,-1014,-1642,1832,73,46
9582,19033894,518,-871,-1373,1953,12,-68
9583,19033904,767,-859,-991,1931,-104,-9
9584,19033914,1034,-722,-757,1777,-132,-71
9585,19033924,1103,-660,-739,1589,-355,-64
9586,19033934,1109,-678,-843,1479,-758,44
9587,19033944,947,-757,-1020,1371,-1179,330
9588,19033954,842,-722,-1162,1343,-1457,628
9589,19033964,869,-691,-1350,1390,-1405,737
9590,19033974,775,-1596,-1777,1341,-1029,867
9591,19033984,-145,-985,-2178,511,-638,1433
9592,19033994,531,-1650,-2090,-664,-1019,929
9593,19034004,463,-776,-1867,454,481,-768
9594,19034001,463,-776,-1867,454,481,-662
9595,19034011,581,-1118,-1579,981,798,277
9596,19034021,602,-952,-1485,757,897,-44
9597,19034031,547,-996,-1420,712,841,180
9598,19034041,469,-1171,-1387,688,851,301
9599,19034051,215,-1479,-1480,636,789,482
9600,19034061,53,-1732,-1635,656,456,582
9601,19034071,-88,-1830,-1799,660,-53,432
9602,19034081,-116,-1655,-1943,526,-417,95
9603,19034091,-22,-1480,-1920,706,-477,-225
9604,19034101,124,-1322,-1776,1035,-255,-338
9605,19034111,268,-1222,-1607,1271,7,-464
9606,19034121,287,-1275,-1622,1308,48,-495
9607,19034131,219,-1320,-1800,1063,-169,-301
9608,19034141,163,-1436,-1958,915,-318,-206
9609,19034151,49,-1316,-1944,678,-321,-237
9610,19034161,122,-1145,-1798,607,-251,-492
9611,19034171,449,-842,-1727,621,-101,-959
9612,19034181,469,-723,-1568,954,-156,-591
9613,19034191,545,-821,-1373,1514,-310,-97
9614,19034201,606,-730,-1342,1511,-509,129
9615,19034211,643,-706,-1288,1573,-712,390
9616,19034221,694,-826,-1204,1825,-912,653
9617,19034231,664,-833,-1224,1828,-1037,799
9618,19034241,670,-979,-1275,1715,-1089,881
9619,19034251,458,-1446,-1566,1591,-1083,768
9620,19034248,459,-1447,-1566,1591,-1083,936
9621,19034258,13,-1182,-1941,54,-1240,768
9622,19034268,305,-1296,-1840,824,-781,5
9623,19034278,216,-1339,-1773,1208,-363,155
9624,19034288,194,-1322,-1698,1304,-121,81
9625,19034298,289,-1203,-1668,1341,-39,-60
9626,19034308,316,-1113,-1619,1333,-48,16
9627,19034318,349,-1160,-1541,1408,-88,218
9628,19034328,350,-1235,-1462,1503,-226,391
9629,19034338,311,-1229,-1545,1453,-322,378
9630,19034348,327,-1203,-1542,1352,-314,285
9631,19034358,296,-1233,-1536,1347,-200,168
9632,19034368,252,-1237,-1550,1306,-142,145
9633,19034378,262,-1226,-1643,1250,-165,105
9634,19034388,218,-1217,-1662,1219,-158,105
9635,19034398,191,-1254,-1639,1276,-74,119
9636,19034408,219,-1234,-1607,1289,13,94
9637,19034418,324,-1267,-1516,1229,86,120
9638,19034428,315,-1269,-1470,1118,96,164
9639,19034438,313,-1282,-1458,1133,40,132
9640,19034448,339,-1238,-1468,1117,-2,24
9641,19034458,289,-1243,-1519,1124,-41,-10
9642,19034468,266,-1327,-1537,1144,-37,24
9643,19034478,215,-1329,-1578,1120,-38,33
9644,19034488,274,-1308,-1578,1137,-27,-27
9645,19034498,278,-1259,-1538,1105,-19,-256
9646,19034494,279,-1260,-1538,1106,-19,-47
9647,19034504,336,-1266,-1477,1095,16,-44
9648,19034514,357,-1319,-1410,1091,-51,91
9649,19034524,323,-1310,-1459,1032,-185,136
9650,19034534,268,-1274,-1542,904,-279,75
9651,19034544,243,-1283,-1567,902,-289,127
9652,19034554,258,-1264,-1586,905,-271,130
9653,19034564,225,-1245,-1627,945,-232,123
9654,19034574,212,-1210,-1659,1000,-186,123
9655,19034584,238,-1254,-1590,1130,-31,141
9656,19034594,299,-1253,-1542,1074,99,151
9657,19034604,318,-1278,-1449,991,144,170
9658,19034614,362,-1279,-1427,962,118,150
9659,19034624,342,-1309,-1451,987,-14,136
9660,19034634,219,-1337,-1500,1051,-178,128
9661,19034644,209,-1319,-1571,1037,-306,84
9662,19034654,235,-1316,-1598,1041,-317,21
9663,19034664,258,-1278,-1569,1053,-237,3
9664,19034674,266,-1286,-1526,1082,-175,5
9665,19034684,288,-1262,-1536,1054,-169,32
9666,19034694,304,-1248,-1557,1055,-190,40
9667,19034704,255,-1266,-1554,1048,-167,87
9668,19034714,273,-1270,-1516,1074,-132,86
9669,19034724,302,-1253,-1500,1035,-148,97
9670,19034734,297,-1256,-1501,1028,-241,162
9671,19034744,254,-1298,-1527,1035,-332,0
9672,19034741,254,-1299,-1527,1036,-333,214
9673,19034751,240,-1308,-1512,1066,-405,247
9674,19034761,252,-1344,-1492,1088,-447,237
9675,19034771,218,-1342,-1541,1078,-468,183
9676,19034781,221,-1317,-1541,1074,-410,82
9677,19034791,266,-1278,-1581,1064,-345,23
9678,19034801,271,-1227,-1624,1096,-289,16
9679,19034811,266,-1272,-1623,1154,-322,61
9680,19034821,228,-1259,-1649,1226,-372,119
9681,19034831,249,-1294,-1632,1291,-319,97
9682,19034841,158,-1328,-1656,1425,-307,140
9683,19034851,148,-1181,-1511,1644,-158,60
9684,19034861,54,-1474,-1367,1885,1,-53
9685,19034871,254,-1514,-1233,1809,-92,-128
9686,19034881,159,-1492,-1237,1537,-233,-211
9687,19034891,177,-1439,-1315,1315,-345,-338
9688,19034901,165,-1429,-1383,1215,-408,-423
9689,19034911,169,-1375,-1499,1175,-440,-545
9690,19034921,201,-1305,-1567,1176,-399,-723
9691,19034931,264,-1268,-1634,1188,-318,-811
9692,19034941,310,-1225,-1745,1199,-250,-828
9693,19034951,527,-1278,-1682,1412,-96,-912
9694,19034961,284,-1381,-1542,1825,-243,-724
9695,19034971,419,-1330,-1530,1777,-263,-945
9696,19034981,282,-1432,-1357,1845,-174,-835
9697,19034991,257,-1491,-1194,1863,-128,-1024
9698,19034988,257,-1491,-1194,1863,-129,-818
9699,19034998,342,-1552,-1032,1857,-167,-832
9700,19035008,392,-1556,-963,1686,-250,-889
9701,19035018,305,-1608,-944,1586,-356,-925
9702,19035028,314,-1495,-1100,1411,-558,-1015
9703,19035038,377,-1464,-1246,1344,-715,-1094
9704,19035048,346,-1373,-1348,1286,-778,-1083
9705,19035058,364,-1378,-1349,1306,-771,-1042
9706,19035068,390,-1330,-1469,1308,-747,-1030
9707,19035078,424,-1286,-1545,1354,-721,-1021
9708,19035088,384,-1303,-1741,1385,-664,-937
9709,19035098,442,-1560,-1251,1606,-579,-780
9710,19035108,429,-1369,-1398,1812,-446,-798
9711,19035118,391,-1430,-1493,1326,-588,-701
9712,19035128,269,-1541,-1424,1386,-587,-417
9713,19035138,348,-1506,-1406,1433,-543,-405
9714,19035148,405,-1477,-1379,1426,-575,-445
9715,19035158,385,-1440,-1378,1454,-615,-427
9716,19035168,397,-1401,-1405,1454,-619,-427
9717,19035178,451,-1397,-1355,1487,-565,-427
9718,19035188,402,-1377,-1382,1444,-475,-467
9719,19035198,334,-1394,-1420,1278,-428,-403
9720,19035208,327,-1422,-1425,1191,-363,-297
9721,19035218,324,-1432,-1464,1174,-317,-317
9722,19035228,310,-1402,-1480,1125,-308,-305
9723,19035238,334,-1419,-1431,1222,-308,-256
9724,19035234,334,-1420,-1431,1222,-309,-193
9725,19035244,386,-1417,-1419,1288,-323,-154
9726,19035254,378,-1416,-1350,1350,-353,-164
9727,19035264,368,-1430,-1306,1423,-341,-193
9728,19035274,399,-1462,-1234,1394,-351,-180
9729,19035284,395,-1498,-1221,1359,-358,-165
9730,19035294,368,-1526,-1228,1275,-382,-207
9731,19035304,375,-1534,-1221,1189,-377,-185
9732,19035314,407,-1553,-1209,1141,-327,-225
9733,19035324,404,-1532,-1232,1066,-315,-265
9734,19035334,401,-1531,-1273,1035,-317,-261
9735,19035344,425,-1510,-1296,1053,-318,-228
9736,19035354,432,-1503,-1318,1087,-298,-264
9737,19035364,413,-1477,-1308,1144,-293,-272
9738,19035374,454,-1468,-1336,1157,-321,-251
9739,19035384,450,-1452,-1333,1162,-348,-233
9740,19035394,438,-1486,-1340,1198,-349,-212
9741,19035404,416,-1509,-1314,1151,-349,-164
9742,19035414,416,-1507,-1350,1082,-347,-92
9743,19035424,396,-1538,-1272,1064,-307,-74
9744,19035434,425,-1533,-1241,1082,-264,-119
9745,19035444,415,-1527,-1261,1023,-302,-116
9746,19035454,432,-1520,-1297,1010,-320,-81
9747,19035464,406,-1511,-1293,1010,-291,-66
9748,19035474,406,-1508,-1298,991,-266,-47
9749,19035484,423,-1497,-1317,957,-236,-256
9750,19035481,423,-1498,-1317,958,-237,-35
9751,19035491,419,-1494,-1320,938,-191,-26
9752,19035501,385,-1512,-1354,923,-145,-17
9753,19035511,415,-1495,-1460,896,-87,-37
9754,19035521,443,-1462,-1589,941,-16,-23
9755,19035531,431,-1566,-1560,1176,128,-40
9756,19035541,449,-1647,-1555,1547,228,-68
9757,19035551,497,-1754,-1526,1732,306,-72
9758,19035561,534,-1750,-1577,1742,394,-89
9759,19035571,545,-1665,-1664,1660,487,-221
9760,19035581,584,-1719,-1785,1573,635,-325
9761,19035591,577,-2343,-2111,1488,752,-257
9762,19035601,455,-1683,-1467,1939,999,-115
9763,19035611,1169,-1228,-1307,1774,1383,-1171
9764,19035621,1197,-1252,-1058,1497,1587,-1076
9765,19035631,1080,-1385,-1102,1414,1688,-406
9766,19035641,1038,-1166,-1147,1161,1730,-359
9767,19035651,1112,-1003,-891,1264,1921,-343
9768,19035661,1120,-1020,-646,1497,2168,-324
9769,19035671,1081,-1037,-502,1422,2145,-164
9770,19035681,933,-1072,-432,1275,1801,158
9771,19035691,878,-1203,-346,1401,1364,455
9772,19035701,853,-1215,-317,1192,922,439
9773,19035711,802,-1178,-466,765,511,418
9774,19035721,752,-1291,-562,372,137,620
9775,19035731,719,-1337,-745,10,-156,768
9776,19035728,720,-1338,-744,11,-157,813
9777,19035738,635,-1372,-890,-190,-398,923
9778,19035748,613,-1372,-959,15,-505,876
9779,19035758,586,-1451,-1001,269,-636,782
9780,19035768,481,-1506,-1017,696,-799,898
9781,19035778,401,-1584,-1099,748,-904,851
9782,19035788,286,-1658,-1139,709,-951,922
9783,19035798,242,-1788,-1178,741,-900,906
9784,19035808,186,-1986,-1238,657,-837,758
9785,19035818,112,-2051,-1395,565,-849,719
9786,19035828,101,-2134,-1403,754,-826,583
9787,19035838,123,-2083,-1315,981,-707,208
9788,19035848,178,-1921,-1169,1061,-606,-227
9789,19035858,278,-1714,-1086,1083,-581,-441
9790,19035868,339,-1604,-950,1213,-626,-500
9791,19035878,337,-1513,-886,1270,-719,-544
9792,19035888,312,-1387,-848,1226,-874,-558
9793,19035898,337,-1257,-817,1164,-1006,-449
9794,19035908,391,-932,-830,1148,-1080,-286
9795,19035918,362,-719,-844,1349,-1253,273
9796,19035928,345,-760,-873,1517,-1267,1149
9797,19035938,197,-2939,-1163,1873,-1135,1835
9798,19035948,-1069,-4961,-2944,-1429,-1192,1940
9799,19035958,-535,-767,-1878,-1713,-1316,113
9800,19035968,1161,-1315,-534,1715,1051,-2544
9801,19035978,278,-2007,-1174,1006,-117,768
9802,19035974,279,-2007,-1174,1007,-118,783
9803,19035984,51,-1782,-2005,472,-1185,1163
9804,19035994,224,-1447,-1505,803,-512,392
9805,19036004,290,-1465,-1012,1515,-17,531
9806,19036014,157,-1631,-1217,1329,-293,577
9807,19036024,-392,-945,-1237,1036,-441,589
9808,19036034,182,-2034,-1418,746,-322,138
9809,19036044,-396,-1071,-1665,924,-40,195
9810,19036054,-209,-2449,-1335,1156,78,389
9811,19036064,-379,-1960,-1328,788,517,-344
9812,19036074,-211,-1859,-1180,775,596,-1077
9813,19036084,-144,-1764,-1082,733,528,-1278
9814,19036094,-121,-1634,-1044,683,414,-1520
9815,19036104,6,-1519,-1038,656,329,-1800
9816,19036114,75,-1441,-1030,826,272,-1895
9817,19036124,110,-1425,-992,1124,155,-1844
9818,19036134,181,-1348,-935,1414,-13,-1793
9819,19036144,320,-1283,-907,1698,-175,-1716
9820,19036154,405,-1243,-884,1788,-288,-1604
9821,19036164,506,-1225,-836,1893,-335,-1432
9822,19036174,625,-1147,-844,1933,-444,-1275
9823,19036184,704,-1136,-903,2037,-541,-1185
9824,19036194,747,-1094,-889,2098,-540,-1144
9825,19036204,814,-1023,-891,1978,-573,-1037
9826,19036214,880,-975,-904,1809,-693,-832
9827,19036224,840,-960,-1059,1531,-845,-768
9828,19036221,840,-961,-1059,1531,-846,-527
9829,19036231,819,-957,-1260,1361,-988,-215
9830,19036241,790,-1010,-1415,1323,-1058,172
9831,19036251,761,-1098,-1491,1409,-1090,727
9832,19036261,655,-1433,-1661,1389,-1126,1367
9833,19036271,541,-1511,-1795,1114,-1091,1883
9834,19036281,472,-1739,-1876,959,-900,2025
9835,19036291,369,-1851,-1947,856,-605,1909
9836,19036301,427,-1412,-1715,740,-308,1577
9837,19036311,32,-1366,-1690,1271,-55,966
9838,19036321,523,-1519,-1759,101,150,203
9839,19036331,455,-1552,-1458,1279,168,26
9840,19036341,465,-1638,-1178,1129,231,616
9841,19036351,438,-1781,-1166,916,49,848
9842,19036361,393,-1856,-1173,783,-158,904
9843,19036371,276,-1934,-1149,607,-224,951
9844,19036381,330,-1892,-1172,520,-350,983
9845,19036391,433,-1755,-1182,255,-429,758
9846,19036401,504,-1641,-1076,132,-295,587
9847,19036411,634,-1543,-980,110,-182,360
9848,19036421,750,-1492,-937,55,-178,196
9849,19036431,697,-1541,-956,33,-205,107
9850,19036441,618,-1530,-1012,68,-272,57
9851,19036451,647,-1520,-1079,147,-283,-223
9852,19036461,686,-1430,-1166,284,-164,-540
9853,19036471,697,-1409,-1120,540,103,-1024
9854,19036468,698,-1410,-1120,541,103,-823
9855,19036478,823,-1415,-984,836,366,-980
9856,19036488,961,-1372,-864,820,444,-1151
9857,19036498,1023,-1458,-816,750,492,-1325
9858,19036508,950,-1180,-817,429,533,-1505
9859,19036518,1114,-1001,-823,325,657,-1632
9860,19036528,1140,-1052,-789,564,914,-1662
9861,19036538,820,-1020,-781,558,1181,-1371
9862,19036548,533,-1374,-1038,848,1153,-793
9863,19036558,205,-1491,-1311,1087,518,-166
9864,19036568,40,-1684,-1283,1640,-584,730
9865,19036578,31,-1817,-1274,2219,-1644,1637
9866,19036588,108,-5340,-2285,2284,-2233,1994
9867,19036598,-806,-1080,-1725,-1013,-2474,2263
9868,19036608,60,-1688,-2124,-820,-1761,-2
9869,19036618,543,-1481,-1752,1024,-607,-325
9870,19036628,502,-1350,-1758,731,-333,97
9871,19036638,299,-1495,-1721,740,-476,325
9872,19036648,223,-1388,-1687,1025,-336,-89
9873,19036658,177,-1476,-1467,1285,-152,38
9874,19036668,12,-1682,-1354,1460,-68,-140
9875,19036678,-33,-1678,-1362,1124,-361,-65
9876,19036688,136,-1478,-1436,588,-444,-450
9877,19036698,273,-1336,-1454,303,-306,-614
9878,19036708,458,-1228,-1353,428,76,-828
9879,19036718,616,-1184,-1210,643,445,-1024
9880,19036714,617,-1184,-1210,644,445,-953
9881,19036724,899,-1111,-1063,794,563,-1015
9882,19036734,1062,-959,-1019,758,499,-1088
9883,19036744,1032,-1061,-1040,698,383,-950
9884,19036754,1039,-1030,-1130,488,222,-716
9885,19036764,1040,-971,-1135,377,217,-811
9886,19036774,1037,-1043,-1079,398,240,-642
9887,19036784,920,-1223,-1126,433,390,-507
9888,19036794,695,-1306,-1246,414,452,-425
9889,19036804,504,-1331,-1435,426,376,-533
9890,19036814,404,-1341,-1647,655,167,-452
9891,19036824,458,-1176,-1833,836,-46,-287
9892,19036834,475,-1187,-1633,1219,-418,445
9893,19036844,472,-1456,-1448,1852,-957,1336
9894,19036854,431,-1624,-1402,1948,-1278,1612
9895,19036864,430,-1471,-1426,1592,-1304,1318
9896,19036874,458,-2454,-1732,1327,-1078,1032
9897,19036884,-11,-1210,-1570,632,-804,881
9898,19036894,318,-1471,-1658,618,-530,283
9899,19036904,317,-1366,-1604,951,-224,225
9900,19036914,359,-1280,-1609,833,-21,158
9901,19036924,462,-1290,-1439,1036,281,130
9902,19036934,606,-1284,-1308,1118,513,27
9903,19036944,610,-1310,-1315,1156,532,-24
9904,19036954,426,-1331,-1383,1177,400,-2
9905,19036964,340,-1425,-1413,1288,254,0
9906,19036961,341,-1426,-1413,1288,253,139
9907,19036971,290,-1436,-1473,1305,133,167
9908,19036981,353,-1437,-1458,1343,40,132
9909,19036991,379,-1398,-1426,1359,16,155
9910,19037001,467,-1394,-1359,1318,-2,206
9911,19037011,485,-1371,-1353,1240,5,188
9912,19037021,486,-1367,-1337,1178,2,145
9913,19037031,475,-1401,-1331,1100,-19,184
9914,19037041,419,-1437,-1336,1028,-134,283
9915,19037051,367,-1444,-1405,1027,-236,205
9916,19037061,357,-1423,-1416,1073,-197,138
9917,19037071,440,-1386,-1386,1151,-115,66
9918,19037081,464,-1415,-1354,1186,-140,157
9919,19037091,443,-1394,-1356,1086,-214,240
9920,19037101,474,-1423,-1374,1044,-284,273
9921,19037111,491,-1365,-1381,1051,-302,263
9922,19037121,541,-1370,-1340,1123,-258,180
9923,19037131,455,-1429,-1324,1262,-401,328
9924,19037141,438,-1487,-1325,1236,-646,458
9925,19037151,430,-1473,-1383,1181,-774,454
9926,19037161,448,-1489,-1350,1131,-763,360
9927,19037171,462,-1523,-1330,1102,-749,324
9928,19037181,418,-1526,-1412,988,-790,313
9929,19037191,272,-1556,-1532,904,-761,243
9930,19037201,131,-1539,-1550,978,-534,125
9931,19037211,248,-1395,-1465,1257,-195,-256
9932,19037208,249,-1395,-1465,1257,-196,-3
9933,19037218,353,-1526,-1463,1332,-41,-68
9934,19037228,247,-1504,-1534,1571,180,-256
9935,19037238,362,-1451,-1620,1675,322,-468
9936,19037248,542,-1452,-1646,1786,476,-710
9937,19037258,667,-1424,-1713,1781,578,-885
9938,19037268,849,-1325,-1827,1766,681,-995
9939,19037278,933,-1256,-1966,1859,786,-1094
9940,19037288,1123,-1265,-1775,2313,867,-988
9941,19037298,1097,-1401,-1886,2470,1033,-1205
9942,19037308,1275,-1822,-1545,2860,1261,-1023
9943,19037318,1211,-1065,-1395,2755,1892,-1617
9944,19037328,1277,-1175,-1007,3322,2253,-1640
9945,19037338,1201,-1409,-638,3937,2709,-1383
9946,19037348,1106,-1499,-437,3473,2905,-1256
9947,19037358,1097,-1490,-287,2712,2927,-1200
9948,19037368,980,-1457,-253,2035,2637,-1105
9949,19037378,973,-1422,-253,1538,2204,-962
9950,19037388,1048,-1352,-200,1103,1683,-847
9951,19037398,1011,-1271,-196,641,1129,-703
9952,19037408,996,-1086,-175,255,570,-382
9953,19037418,932,-1147,-187,368,-40,74
9954,19037428,794,-1321,-289,773,-693,644
9955,19037438,562,-1515,-447,1064,-1188,1052
9956,19037448,482,-1696,-574,1186,-1301,1122
9957,19037458,465,-1876,-653,1158,-1186,768
9958,19037454,465,-1877,-653,1158,-1186,971
9959,19037464,450,-1947,-744,915,-1175,828
9960,19037474,425,-2037,-930,618,-1287,669
9961,19037484,443,-2103,-1091,581,-1392,538
9962,19037494,444,-2092,-1103,898,-1433,371
9963,19037504,426,-1972,-1069,1200,-1476,66
9964,19037514,466,-1769,-1062,1353,-1513,-161
9965,19037524,483,-1593,-1006,1510,-1468,-218
9966,19037534,441,-1513,-858,1554,-1362,-182
9967,19037544,420,-1424,-829,1452,-1281,-50
9968,19037554,424,-1392,-840,1391,-1290,174
9969,19037564,428,-1175,-893,1148,-1242,231
9970,19037574,437,-907,-930,936,-1229,544
9971,19037584,297,-565,-840,1000,-1227,1377
9972,19037594,251,-535,-754,1168,-1041,2387
9973,19037604,1276,-4066,-966,1302,-737,3171
9974,19037614,-1791,-4372,-1997,416,-1101,4181
9975,19037624,-978,-1742,-2745,-3179,-2712,1541
9976,19037634,901,-897,-1643,632,-577,-2413
9977,19037644,412,-1643,-922,1288,447,60
9978,19037654,190,-1911,-1426,984,-533,1155
9979,19037664,268,-1444,-1938,761,-1188,588
9980,19037674,325,-1330,-1805,1463,-737,408
9981,19037684,749,-2690,-1634,2181,-313,395
9982,19037694,386,-1139,-1689,1996,-446,487
9983,19037704,368,-1576,-1565,2882,-336,-256
9984,19037701,368,-1577,-1565,2882,-337,-225
9985,19037711,59,-1147,-1871,2117,-246,454
9986,19037721,329,-1674,-1641,1935,15,-202
9987,19037731,264,-1314,-1551,1143,674,-380
9988,19037741,390,-1236,-1495,640,971,-688
9989,19037751,384,-1209,-1527,342,1017,-666
9990,19037761,449,-1146,-1554,18,1117,-580
9991,19037771,433,-1080,-1576,-174,1201,-493
9992,19037781,391,-1021,-1490,-196,1327,-394
9993,19037791,449,-1027,-1377,-92,1509,-325
9994,19037801,482,-1067,-1269,-66,1625,-157
9995,19037811,489,-1133,-1204,-128,1695,38
9996,19037821,481,-1223,-1170,-395,1755,176
9997,19037831,513,-1283,-1165,-714,1830,416
9998,19037841,515,-1352,-1104,-1051,1891,575
9999,19037851,451,-1353,-1046,-1298,1901,699
10000,19037861,432,-1380,-984,-1283,1911,827
10001,19037871,425,-1579,-861,-933,1963,970
10002,19037881,418,-1719,-815,-588,1865,1062
10003,19037891,369,-1886,-831,-328,1447,1147
10004,19037901,323,-2009,-930,27,974,1303
10005,19037911,297,-2022,-970,454,615,1359
10006,19037921,272,-2025,-972,887,334,1261
10007,19037931,316,-2011,-933,1079,158,1231
10008,19037941,303,-1995,-910,1168,45,1328
10009,19037951,267,-1991,-867,1268,-46,1281
10010,19037948,268,-1991,-867,1268,-47,1378
10011,19037958,336,-2005,-902,1339,-90,1332
10012,19037968,388,-2679,-712,1402,-213,1369
10013,19037978,-170,-2280,-799,1456,-237,1787
10014,19037988,-306,-1173,-617,2580,-615,1908
10015,19037998,926,-1178,-1128,695,-1125,-2213
10016,19038008,440,-1692,-952,743,-952,-670
10017,19038018,449,-1874,-830,1508,-133,399
10018,19038028,353,-2013,-770,1463,-77,497
10019,19038038,499,-1806,-914,1219,-217,-108
10020,19038048,505,-1756,-1006,1188,-239,-254
10021,19038058,472,-1821,-1044,1239,-113,-184
10022,19038068,472,-1555,-945,1307,111,-107
10023,19038078,629,-1676,-852,1294,213,-168
10024,19038088,656,-1749,-808,1230,121,-182
10025,19038098,510,-1603,-853,1087,-57,-216
10026,19038108,570,-1645,-1008,925,-158,-191
10027,19038118,502,-1695,-1103,673,-255,-93
10028,19038128,455,-1745,-1159,635,-257,-19
10029,19038138,464,-1716,-1239,566,-273,-67
10030,19038148,486,-1691,-1279,565,-310,-120
10031,19038158,440,-1646,-1311,619,-300,-121
10032,19038168,437,-1635,-1308,712,-232,-141
10033,19038178,481,-1592,-1286,822,-50,-254
10034,19038188,475,-1648,-1277,864,89,-339
10035,19038198,690,-1612,-1362,647,136,-512
10036,19038194,691,-1613,-1362,648,136,-353
10037,19038204,463,-1300,-1579,-109,150,-758
10038,19038214,557,-1574,-1423,251,419,-42
10039,19038224,505,-1551,-1412,56,437,-429
10040,19038234,536,-1476,-1411,19,522,-540
10041,19038244,562,-1461,-1432,43,500,-729
10042,19038254,539,-1528,-1380,196,641,-879
10043,19038264,548,-1459,-1313,334,834,-1038
10044,19038274,590,-1368,-1173,561,909,-1166
10045,19038284,695,-1174,-927,842,956,-1170
10046,19038294,715,-881,-533,1318,977,-831
10047,19038304,787,-564,-241,1906,687,-289
10048,19038314,951,-405,-151,2619,-118,281
10049,19038324,839,-285,-287,2822,-1212,1633
10050,19038334,824,-2083,-563,3020,-1991,3304
10051,19038344,152,-3747,-1648,2791,-2274,4378
10052,19038354,-790,-1581,-2535,-3810,-3466,3530
10053,19038364,420,-1626,-2256,-606,-1963,-407
10054,19038374,286,-1506,-1767,525,-782,221
10055,19038384,300,-1513,-1554,1280,-163,149
10056,19038394,317,-1469,-1345,1749,143,-234
10057,19038404,450,-1355,-1392,1808,226,-511
10058,19038414,427,-1437,-1191,1985,305,-374
10059,19038424,466,-1482,-1066,1993,392,-390
10060,19038434,443,-1477,-1002,1910,346,-516
10061,19038444,438,-1501,-980,1742,204,-768
10062,19038441,439,-1502,-980,1742,204,-524
10063,19038451,411,-1542,-991,1467,125,-458
10064,19038461,384,-1549,-1027,1180,97,-486
10065,19038471,360,-1594,-1005,993,138,-571
10066,19038481,412,-2454,-1444,773,103,-635
10067,19038491,459,-1485,-1263,42,-100,-349
10068,19038501,537,-1619,-1202,896,-68,-854
10069,19038511,505,-1561,-1281,762,-143,-347
10070,19038521,598,-1549,-1259,897,-222,-300
10071,19038531,622,-1495,-1252,939,-250,-300
10072,19038541,618,-1453,-1201,895,-277,-291
10073,19038551,636,-1421,-1161,858,-329,-222
10074,19038561,646,-1444,-1168,790,-428,-95
10075,19038571,584,-1503,-1173,705,-568,50
10076,19038581,514,-1549,-1214,595,-697,203
10077,19038591,497,-1570,-1250,491,-801,299
10078,19038601,445,-1596,-1306,495,-827,318
10079,19038611,375,-1563,-1347,589,-760,251
10080,19038621,393,-1514,-1346,713,-637,136
10081,19038631,421,-1469,-1368,830,-497,12
10082,19038641,397,-1454,-1339,991,-337,-50
10083,19038651,419,-1469,-1302,1159,-190,-79
10084,19038661,488,-1492,-1284,1227,-113,-145
10085,19038671,467,-1451,-1329,1128,-161,-104
10086,19038681,422,-1459,-1315,1124,-192,-22
10087,19038691,484,-1479,-1267,1221,-150,-256
10088,19038688,484,-1480,-1267,1221,-151,-48
10089,19038698,492,-1501,-1269,1164,-158,-33
10090,19038708,468,-1519,-1269,1126,-195,28
10091,19038718,441,-1510,-1265,1094,-228,37
10092,19038728,480,-1515,-1269,1077,-251,35
10093,19038738,467,-1503,-1279,1094,-245,22
10094,19038748,437,-1510,-1297,1190,-219,56
10095,19038758,435,-1504,-1271,1211,-217,36
10096,19038768,450,-1505,-1270,1246,-214,25
10097,19038778,432,-1534,-1278,1252,-201,8
10098,19038788,421,-1517,-1267,1227,-205,8
10099,19038798,463,-1520,-1257,1214,-214,12
10100,19038808,453,-1530,-1239,1198,-219,9
10101,19038818,427,-1528,-1225,1167,-232,-4
10102,19038828,417,-1518,-1203,1128,-239,-4
10103,19038838,437,-1537,-1213,1092,-250,0
10104,19038848,414,-1557,-1235,1050,-274,-4
10105,19038858,391,-1561,-1255,1005,-292,9
10106,19038868,427,-1569,-1246,997,-288,17
10107,19038878,424,-1551,-1269,1031,-259,-11
10108,19038888,400,-1550,-1255,1058,-236,-48
10109,19038898,432,-1533,-1253,1070,-227,-59
10110,19038908,450,-1528,-1248,1076,-219,-49
10111,19038918,430,-1532,-1246,1072,-213,-41
10112,19038928,406,-1541,-1227,1077,-197,-47
10113,19038938,425,-1527,-1245,1074,-194,-256
10114,19038934,426,-1528,-1245,1075,-194,-48
10115,19038944,433,-1534,-1234,1062,-208,-47
10116,19038954,417,-1538,-1245,1055,-216,-45
10117,19038964,425,-1529,-1244,1050,-216,-45
10118,19038974,448,-1532,-1259,1044,-231,-38
10119,19038984,411,-1551,-1240,1034,-250,-37
10120,19038994,400,-1549,-1250,1025,-261,-30
10121,19039004,420,-1542,-1254,1015,-268,-28
10122,19039014,424,-1536,-1254,1015,-271,-26
10123,19039024,395,-1556,-1256,1011,-278,-27
10124,19039034,408,-1561,-1255,1003,-289,-21
10125,19039044,435,-1549,-1247,1006,-284,-38
10126,19039054,409,-1533,-1262,1005,-277,-54
10127,19039064,385,-1531,-1258,1014,-253,-62
10128,19039074,413,-1540,-1246,1042,-217,-76
10129,19039084,425,-1525,-1241,1033,-227,-74
10130,19039094,379,-1534,-1270,1016,-245,-66
10131,19039104,401,-1538,-1266,1013,-246,-59
10132,19039114,416,-1531,-1269,1015,-247,-68
10133,19039124,391,-1535,-1274,1016,-252,-75
10134,19039134,391,-1524,-1262,1016,-250,-75
10135,19039144,415,-1531,-1262,1013,-249,-72
10136,19039154,415,-1532,-1270,1029,-228,-85
10137,19039164,395,-1534,-1261,1042,-219,-92
10138,19039174,395,-1531,-1267,1044,-220,-88
10139,19039184,426,-1526,-1274,1052,-213,-256
10140,19039181,427,-1527,-1274,1053,-214,-98
10141,19039191,402,-1545,-1265,1059,-220,-96
10142,19039201,384,-1542,-1272,1065,-219,-87
10143,19039211,408,-1538,-1256,1079,-210,-91
10144,19039221,418,-1536,-1238,1075,-208,-95
10145,19039231,376,-1524,-1250,1061,-220,-88
10146,19039241,414,-1530,-1274,1060,-230,-90
10147,19039251,431,-1520,-1267,1066,-224,-93
10148,19039261,404,-1526,-1255,1071,-224,-95
10149,19039271,406,-1530,-1257,1071,-239,-94
10150,19039281,422,-1526,-1269,1074,-255,-88
10151,19039291,429,-1521,-1275,1091,-257,-98
10152,19039301,390,-1517,-1267,1122,-240,-111
10153,19039311,394,-1517,-1244,1136,-230,-100
10154,19039321,420,-1525,-1252,1137,-230,-88
10155,19039331,378,-1549,-1259,1127,-240,-81
10156,19039341,379,-1552,-1246,1130,-244,-77
10157,19039351,409,-1534,-1264,1133,-245,-91
10158,19039361,421,-1530,-1257,1140,-248,-99
10159,19039371,386,-1534,-1258,1146,-261,-91
10160,19039381,403,-1532,-1250,1158,-253,-90
10161,19039391,424,-1539,-1245,1159,-243,-80
10162,19039401,385,-1566,-1225,1153,-227,-57
10163,19039411,389,-1569,-1205,1141,-216,-52
10164,19039421,401,-1567,-1202,1125,-203,-55
10165,19039431,411,-1571,-1187,1109,-194,-256
10166,19039428,411,-1571,-1186,1110,-195,-65
10167,19039438,361,-1577,-1207,1087,-198,-67
10168,19039448,391,-1577,-1217,1072,-189,-75
10169,19039458,413,-1571,-1228,1049,-193,-84
10170,19039468,386,-1560,-1222,1042,-194,-94
10171,19039478,407,-1538,-1230,1038,-195,-103
10172,19039488,417,-1543,-1247,1028,-207,-88
10173,19039498,417,-1557,-1229,1022,-211,-76
10174,19039508,373,-1560,-1246,1018,-217,-71
10175,19039518,395,-1544,-1242,1020,-224,-75
10176,19039528,435,-1542,-1233,1025,-222,-79
10177,19039538,400,-1554,-1236,1027,-223,-74
10178,19039548,391,-1554,-1242,1022,-229,-72
10179,19039558,406,-1543,-1227,1028,-218,-75
10180,19039568,405,-1547,-1222,1032,-205,-73
10181,19039578,386,-1548,-1230,1026,-213,-78
10182,19039588,402,-1546,-1252,1022,-220,-88
10183,19039598,413,-1539,-1236,1027,-212,-93
10184,19039608,414,-1552,-1233,1021,-210,-89
10185,19039618,388,-1546,-1237,1010,-217,-83
10186,19039628,420,-1547,-1235,1009,-220,-76
10187,19039638,401,-1530,-1245,1007,-223,-76
10188,19039648,381,-1538,-1253,1006,-227,-75
10189,19039658,395,-1541,-1250,1009,-229,-73
10190,19039668,420,-1535,-1256,1020,-221,-70
10191,19039678,395,-1543,-1255,1029,-219,-256
10192,19039674,396,-1544,-1254,1030,-220,-69
10193,19039684,394,-1562,-1254,1043,-203,-72
10194,19039694,414,-1544,-1254,1044,-196,-85
10195,19039704,408,-1541,-1234,1043,-191,-89
10196,19039714,404,-1554,-1246,1042,-191,-95
10197,19039724,406,-1552,-1263,1035,-197,-96
10198,19039734,430,-1567,-1278,1052,-181,-103
10199,19039744,390,-1564,-1265,1055,-161,-114
10200,19039754,395,-1560,-1247,1062,-154,-141
10201,19039764,405,-1588,-1305,1068,-142,-150
10202,19039774,382,-1590,-1357,1096,-82,-195
10203,19039784,402,-1581,-1310,1204,71,-353
10204,19039794,461,-1553,-1252,1229,133,-428
10205,19039804,477,-1571,-1243,1165,57,-341
10206,19039814,301,-1382,-1246,1033,-31,-240
10207,19039824,495,-1409,-1235,901,31,-414
10208,19039834,505,-1402,-1278,389,-30,-653
10209,19039844,502,-1528,-1191,874,144,-295
10210,19039854,436,-1573,-1244,951,101,-185
10211,19039864,464,-1547,-1307,872,141,-289
10212,19039874,534,-1475,-1284,817,271,-479
10213,19039884,514,-1504,-1241,884,362,-501
10214,19039894,524,-1542,-1215,968,422,-454
10215,19039904,555,-1540,-1181,974,395,-456
10216,19039914,575,-1515,-1158,962,310,-477
10217,19039924,580,-1492,-1149,900,225,-512
10218,19039921,580,-1493,-1149,901,225,-476
10219,19039931,596,-1459,-1148,831,123,-456
10220,19039941,619,-1441,-1165,788,39,-432
10221,19039951,606,-1431,-1192,746,-19,-390
10222,19039961,615,-1408,-1207,754,-47,-335
10223,19039971,631,-1436,-1206,904,-46,-183
10224,19039981,637,-1485,-1254,1092,-24,5
10225,19039991,519,-1498,-1253,1339,45,167
10226,19040001,592,-1530,-1209,1584,163,-23
10227,19040011,661,-1495,-1190,1575,145,-311
10228,19040021,634,-1522,-1159,1522,71,-287
10229,19040031,620,-1488,-1148,1446,-24,-180
10230,19040041,643,-1473,-1138,1363,-97,-176
10231,19040051,672,-1432,-1096,1283,-117,-184
10232,19040061,628,-1281,-1083,1266,-129,-162
10233,19040071,681,-1194,-1051,1442,-180,-179
10234,19040081,790,-1056,-966,1775,-166,-106
10235,19040091,661,-729,-741,2081,-277,540
10236,19040101,593,-617,-667,2788,-437,1610
10237,19040111,657,-1044,-509,3527,-616,2455
10238,19040121,602,-3125,-862,3997,-836,3094
10239,19040131,-881,-2107,-2093,-917,-1542,3699
10240,19040141,393,-1828,-1773,-85,-1239,52
10241,19040151,531,-1724,-1206,1130,-329,-240
10242,19040161,402,-1798,-1029,1112,-192,258
10243,19040171,400,-1602,-1099,812,-506,0
10244,19040168,401,-1603,-1099,812,-507,166
10245,19040178,473,-1427,-1204,696,-748,115
10246,19040188,412,-1536,-1259,714,-760,175
10247,19040198,206,-1704,-1332,702,-804,302
10248,19040208,146,-1792,-1594,922,-1009,266
10249,19040218,290,-2409,-1932,1288,-1355,-71
10250,19040228,-440,-1472,-2317,1408,-1903,-35
10251,19040238,436,-3433,-2950,2861,-2067,-1444
10252,19040248,-732,-1943,-3337,2822,-2803,-140
10253,19040258,-391,-2231,-3117,5886,-2355,11
10254,19040268,-1,-1481,-3311,6084,-2283,-2530
10255,19040278,-282,-1612,-2894,6364,-1327,-2467
10256,19040288,-174,-2023,-3021,6447,213,-1761
10257,19040298,-436,-2076,-3081,5215,702,-1659
10258,19040308,-434,-1951,-2871,4660,1736,-1910
10259,19040318,-363,-1704,-2439,3984,3074,-2411
10260,19040328,-313,-1448,-1858,3842,4377,-2505
10261,19040338,-265,-1043,-1336,3786,5039,-2542
10262,19040348,-61,-755,-748,4102,5314,-2530
10263,19040358,7,-343,-258,4248,5307,-2163
10264,19040368,-54,35,132,4545,4991,-1591
10265,19040378,-414,348,845,5251,4537,-699
10266,19040388,-874,682,2164,6202,4275,335
10267,19040398,-1204,380,4783,6913,4827,856
10268,19040408,-1194,-680,8107,5931,6515,796
10269,19040418,-1214,-1903,9302,2471,6504,256
10270,19040414,-1214,-1904,9302,2472,6504,352
10271,19040424,-1946,-2655,8953,-620,2357,1650
10272,19040434,-2524,-2144,7682,-1398,-3429,4070
10273,19040444,-2570,-1232,6049,-518,-7419,4766
10274,19040454,-2331,-989,6194,3307,-10568,4163
10275,19040464,-1829,-707,6255,7513,-12848,3248
10276,19040474,-1813,-101,5456,8751,-14340,3090
10277,19040484,-2194,236,4380,7965,-15454,3833
10278,19040494,-2958,185,3523,6765,-15836,4691
10279,19040504,-4096,-261,2808,5408,-15747,5585
10280,19040514,-5943,-2673,1989,3992,-15563,6600
10281,19040524,-7622,-4045,239,345,-15701,7822
10282,19040534,-7336,-3887,-5307,-4223,-15860,5867
10283,19040544,-8189,-4765,-9314,-7106,-17708,2945
10284,19040554,-8027,-4067,-11807,-8057,-17718,172
10285,19040564,-8566,-3971,-13060,-6162,-13667,-1050
10286,19040574,-7532,-2991,-10440,-2685,-3185,-2206
10287,19040584,-6861,-3752,-7296,3465,6537,-998
10288,19040594,-5704,-3444,-5376,4880,10332,-2008
10289,19040604,-4988,-2933,-4093,4279,10621,-3345
10290,19040614,-4710,-2095,-3115,3461,10749,-4499
10291,19040624,-4421,-973,-1630,3586,12204,-5539
10292,19040634,-4474,-142,359,4279,14163,-5924
10293,19040644,-5380,246,2221,4084,16104,-5316
10294,19040654,-6311,642,5391,2845,18290,-4355
10295,19040664,-6220,-4,11262,1496,20583,-3842
10296,19040661,-6220,-4,11263,1497,20583,-3622
10297,19040671,-4394,-2028,13845,-3587,21655,-2749
10298,19040681,-2437,-4254,16332,-10646,19667,-1925
10299,19040691,-2500,-2207,13814,-12601,11066,-2246
10300,19040701,-832,-484,9729,-11074,4486,-2661
10301,19040711,209,-699,11010,-2112,-3779,-2166
10302,19040721,1188,111,11518,8561,-10459,-947
10303,19040731,420,1761,9305,10688,-14569,238
10304,19040741,-925,857,7212,10484,-16884,2862
10305,19040751,-2311,-40,5786,7858,-17664,5467
10306,19040761,-3869,-800,4847,5809,-17150,6511
10307,19040771,-6410,-2347,3483,3765,-16428,6878
10308,19040781,-9054,-3673,1513,529,-16204,7219
10309,19040791,-9853,-3289,-1638,-2639,-16241,6388
10310,19040801,-9968,-5028,-9562,-4642,-16831,3766
10311,19040811,-8833,-6086,-13591,-5474,-18607,676
10312,19040821,-8391,-4242,-14497,-4623,-9665,-1627
10313,19040831,-7340,-3799,-9225,-637,2799,-3040
10314,19040841,-5064,-2440,-5387,2954,9889,-4591
10315,19040851,-4355,-1802,-3796,3404,10604,-4433
10316,19040861,-3846,-1371,-3002,3153,9624,-3444
10317,19040871,-3504,-1008,-2277,3171,9790,-3500
10318,19040881,-3339,-503,-1445,3305,10898,-4404
10319,19040891,-3606,247,-12,2705,12419,-4752
10320,19040901,-4387,1053,3228,1878,14310,-4108
10321,19040911,-4524,971,9163,1005,17142,-3329
10322,19040908,-4523,970,9164,1006,17142,-3178
10323,19040918,-3777,382,13151,-2224,21371,-1120
10324,19040928,-2137,-2728,15438,-5604,21805,-417
10325,19040938,-2574,-2928,14930,-6740,15440,-749
10326,19040948,-1590,-2893,12514,-6290,6301,-1843
10327,19040958,-936,-1209,9959,-3261,-3340,-652
10328,19040968,-344,-380,8637,4268,-10602,-388
10329,19040978,-538,383,6384,6698,-14207,-33
10330,19040988,-1150,417,4381,6703,-15740,1431
10331,19040998,-2133,29,3112,5886,-16327,3123
10332,19041008,-3750,-1015,2320,5002,-16182,4556
10333,19041018,-6075,-2837,953,3046,-15931,5904
10334,19041028,-7370,-4574,-2252,62,-15729,6044
10335,19041038,-6946,-5884,-8704,-3863,-15695,3519
10336,19041048,-7900,-4915,-13913,-7972,-17545,626
10337,19041058,-6695,-2810,-15513,-6610,-10299,-3459
10338,19041068,-6070,-2704,-10636,-242,2749,-2687
10339,19041078,-4156,-1783,-5978,3435,10371,-2776
10340,19041088,-3378,-866,-4532,2646,11926,-3187
10341,19041098,-3197,-640,-3377,2045,10757,-2405
10342,19041108,-3498,-681,-1718,1832,10832,-1397
10343,19041118,-4037,-291,95,982,12397,-876
10344,19041128,-4873,440,3226,374,14779,-398
10345,19041138,-5438,237,9862,523,17579,548
10346,19041148,-4124,-1741,13279,-1252,22255,1854
10347,19041158,-3465,-3770,14254,-3535,22213,1024
10348,19041154,-3464,-3771,14254,-3534,22212,1123
10349,19041164,-2246,-4277,13912,-4348,13535,-1357
10350,19041174,-2039,-3497,11178,-5092,3490,-337
10351,19041184,-1509,-2689,9925,-18,-5685,999
10352,19041194,-954,-1285,8393,6367,-11774,143
10353,19041204,-1019,-202,6540,8355,-15268,270
10354,19041214,-1650,-64,4855,8148,-16859,1720
10355,19041224,-2775,-381,3610,6935,-17404,3032
10356,19041234,-4276,-708,2749,5339,-17104,4265
10357,19041244,-6385,-1682,2131,3259,-16419,5340
10358,19041254,-8055,-2459,-634,283,-15556,6381
10359,19041264,-7124,-6272,-8146,-2986,-15206,5003
10360,19041274,-7058,-7463,-13990,-5504,-16616,2977
10361,19041284,-6752,-6344,-15485,-4520,-11048,906
10362,19041294,-6004,-5055,-10349,359,951,-2196
10363,19041304,-4720,-3182,-5008,3324,8791,-5641
10364,19041314,-3699,-1772,-2969,2827,11224,-6870
10365,19041324,-3083,-745,-2943,1187,10423,-6593
10366,19041334,-3034,-361,-2300,1119,9576,-5637
10367,19041344,-3259,-322,-1044,1953,10411,-4524
10368,19041354,-4155,44,989,1855,12604,-3778
10369,19041364,-5327,1301,3566,1157,15661,-3366
10370,19041374,-6990,1153,9781,285,18669,-2854
10371,19041384,-3330,578,14457,-3206,21801,-2980
10372,19041394,-2106,-1587,15010,-6879,21821,-4381
10373,19041404,-1097,-2322,13227,-7036,12173,-3842
10374,19041401,-1097,-2322,13227,-7035,12173,-3827
10375,19041411,-1828,-748,9514,-7350,712,15
10376,19041421,-1335,-523,9302,54,-7001,2343
10377,19041431,-765,120,8300,7214,-12403,2285
10378,19041441,-1164,467,6523,8590,-15770,3279
10379,19041451,-2296,98,4688,7953,-17676,5035
10380,19041461,-3602,-546,3377,6248,-18147,6180
10381,19041471,-5484,-1931,2351,3872,-17599,7011
10382,19041481,-7512,-3740,355,887,-16543,7512
10383,19041491,-6756,-6616,-5163,-2411,-15256,5944
10384,19041501,-5796,-7717,-11627,-5974,-15640,2180
10385,19041511,-6581,-4965,-15796,-8715,-14471,-697
10386,19041521,-5621,-3655,-12263,-3379,-4654,-3131
10387,19041531,-4764,-2617,-6782,1448,6526,-3671
10388,19041541,-3008,-1524,-3616,2573,11863,-4555
10389,19041551,-2590,-802,-3494,1272,11043,-4105
10390,19041561,-2858,-420,-2858,284,9290,-2759
10391,19041571,-3323,-431,-1153,92,10026,-1787
10392,19041581,-3866,-61,1090,-556,12607,-1147
10393,19041591,-4840,924,4089,-357,15921,295
10394,19041601,-6030,-150,9572,342,18777,1676
10395,19041611,-4036,-2597,15057,-410,21020,1929
10396,19041621,-2408,-3831,15235,-2240,19208,-1271
10397,19041631,-1529,-3681,13055,-3906,9502,-3159
10398,19041641,-1537,-2227,9629,-4622,-1549,1179
10399,19041651,-1042,-1661,8958,2867,-8822,2305
10400,19041648,-1042,-1662,8958,2867,-8822,2409
10401,19041658,-711,-393,6888,6655,-12853,850
10402,19041668,-786,-69,5203,7660,-14934,1095
10403,19041678,-1644,-425,3663,6831,-16192,2486
10404,19041688,-2943,-1083,2111,5233,-16412,3546
10405,19041698,-4133,-1820,697,2942,-15938,4428
10406,19041708,-5432,-3843,-2006,1143,-14604,4283
10407,19041718,-5123,-5959,-6698,-888,-12747,2936
10408,19041728,-4084,-6951,-11614,-2732,-11517,261
10409,19041738,-4288,-5404,-12519,-3231,-8183,-1135
10410,19041748,-3780,-4016,-9566,-851,212,-3039
10411,19041758,-2796,-2499,-5955,520,6535,-4759
10412,19041768,-1992,-1789,-4182,963,9520,-4697
10413,19041778,-2152,-1040,-3619,100,8946,-3621
10414,19041788,-2496,-766,-2278,131,8530,-2673
10415,19041798,-2938,-482,-357,-108,9852,-2031
10416,19041808,-3460,128,2351,-757,12399,-953
10417,19041818,-4446,76,6064,-1539,15316,560
10418,19041828,-4375,-832,9628,-2935,18155,1856
10419,19041838,-3634,-2439,12498,-3653,19364,1235
10420,19041848,-2184,-3458,13160,-3592,16163,-1930
10421,19041858,-1141,-3665,10124,-3360,7856,-3682
10422,19041868,-1443,-2394,7904,-3201,-1961,390
10423,19041878,-1451,-1585,7390,1950,-8507,2584
10424,19041888,-919,-495,5841,5541,-11573,940
10425,19041898,-706,48,4614,6842,-13293,1024
10426,19041895,-706,48,4614,6842,-13294,1142
10427,19041905,-1286,-109,3373,6662,-14555,2318
10428,19041915,-2281,-741,2236,5708,-15252,3556
10429,19041925,-3430,-1109,919,4199,-15353,4581
10430,19041935,-4606,-2895,-715,2428,-15024,5012
10431,19041945,-5033,-4814,-4260,1282,-13568,4817
10432,19041955,-3894,-7198,-8699,-254,-12531,2365
10433,19041965,-4691,-7282,-12243,-2271,-11551,727
10434,19041975,-4117,-4839,-11290,-3137,-5198,-1906
10435,19041985,-3145,-2986,-7512,-530,4675,-4840
10436,19041995,-1929,-1786,-4185,740,9643,-5527
10437,19042005,-1768,-1073,-3373,-195,10120,-4308
10438,19042015,-2153,-748,-2487,-1459,9434,-2876
10439,19042025,-2753,-603,-1007,-2141,10270,-1641
10440,19042035,-3577,-663,1123,-2409,12932,-267
10441,19042045,-4758,-6,3707,-2467,16186,1830
10442,19042055,-5838,-1925,8135,-2174,18791,3498
10443,19042065,-4375,-3610,12685,-2868,20267,3308
10444,19042075,-2619,-3708,13273,-2719,16587,-1034
10445,19042085,-1635,-3047,10526,-4289,8012,-3391
10446,19042095,-2021,-2583,8713,-2646,-1812,194
10447,19042105,-1743,-2141,8875,4034,-9216,3241
10448,19042115,-1243,-535,7310,7293,-12860,1132
10449,19042125,-1567,-284,5718,8006,-15205,1746
10450,19042135,-2421,-511,3987,6863,-16804,3139
10451,19042145,-3451,-1023,2705,5056,-17181,3842
10452,19042141,-3450,-1023,2705,5057,-17181,3904
10453,19042151,-4591,-1528,1257,2954,-16784,4422
10454,19042161,-5323,-2452,-390,572,-16142,4583
10455,19042171,-5729,-4939,-3990,-953,-15550,4169
10456,19042181,-5417,-6536,-9259,-3191,-15772,2549
10457,19042191,-6379,-5428,-13736,-5614,-14084,709
10458,19042201,-5269,-3950,-11269,-3417,-4812,-2402
10459,19042211,-3952,-2957,-7017,1132,6329,-3988
10460,19042221,-2582,-2000,-3766,1589,10725,-5097
10461,19042231,-1985,-1311,-3368,473,10775,-4254
10462,19042241,-2395,-1039,-2718,-838,9627,-2922
10463,19042251,-2761,-986,-965,-1132,10358,-1706
10464,19042261,-3374,-1000,1489,-1417,12991,-444
10465,19042271,-4336,-128,4039,-1686,16168,1483
10466,19042281,-4838,-1174,7945,-1602,18695,2629
10467,19042291,-3939,-3262,12122,-2299,20876,3314
10468,19042301,-3000,-3245,12997,-2831,19963,595
10469,19042311,-1407,-4363,11827,-2950,12673,-5034
10470,19042321,-1377,-3383,8131,-5253,2508,-2600
10471,19042331,-2628,-2547,8069,-171,-7517,2393
10472,19042341,-2088,-1373,7278,5808,-12947,1430
10473,19042351,-1717,-295,5601,7666,-15477,442
10474,19042361,-2582,-369,4142,7814,-17030,1698
10475,19042371,-3501,-519,2761,6307,-18068,2712
10476,19042381,-4580,-350,1642,4404,-18074,3388
10477,19042391,-5624,-678,757,2599,-17296,3842
10478,19042388,-5624,-678,757,2600,-17296,3868
10479,19042398,-6602,-2130,-1148,1235,-16043,4261
10480,19042408,-5216,-5076,-6195,-892,-15583,4174
10481,19042418,-6918,-5528,-10803,-4844,-17393,4711
10482,19042428,-7244,-5289,-13519,-5362,-16472,3652
10483,19042438,-7052,-4725,-11970,-1609,-6817,-66
10484,19042448,-5485,-2913,-7648,847,5730,-4242
10485,19042458,-3723,-1406,-3991,2122,12174,-6645
10486,19042468,-2804,-137,-2915,1186,12812,-6402
10487,19042478,-2166,237,-2234,856,11350,-4895
10488,19042488,-2333,129,-1191,1135,10337,-2680
10489,19042498,-2685,-264,564,564,11128,-1074
10490,19042508,-3874,-229,2766,-535,13531,548
10491,19042518,-4826,639,5791,-974,17195,2650
10492,19042528,-5092,-1566,10606,180,20706,3541
10493,19042538,-3053,-2625,14527,-253,22509,2557
10494,19042548,-2790,-3497,14427,-536,18729,-2370
10495,19042558,-651,-3237,10893,-2847,8678,-5221
10496,19042568,-2412,-2693,8591,-3817,-3739,1446
10497,19042578,-1908,-1841,7728,2228,-11943,3987
10498,19042588,-1739,-595,5488,5460,-14619,1081
10499,19042598,-1814,-272,3961,6664,-15778,960
10500,19042608,-2858,-730,2796,6423,-16783,2327
10501,19042618,-4009,-1417,1599,4642,-16863,3341
10502,19042628,-4809,-1437,530,1923,-16422,4325
10503,19042638,-5269,-2710,-1379,126,-15343,4098
10504,19042634,-5268,-2710,-1379,127,-15343,4232
10505,19042644,-4679,-4817,-5624,-821,-14272,3936
10506,19042654,-5280,-6051,-9619,-2290,-13095,3243
10507,19042664,-4692,-5989,-10646,-2127,-9052,2044
10508,19042674,-4302,-5546,-8461,159,-673,-530
10509,19042684,-3302,-3303,-6175,-459,5800,-4285
10510,19042694,-2332,-1801,-4068,-872,8787,-5754
10511,19042704,-1817,-1027,-3370,-1110,9438,-4877
10512,19042714,-1812,-717,-2671,-1148,9328,-3539
10513,19042724,-1914,-842,-1355,-816,9742,-2022
10514,19042734,-2338,-1047,456,-961,11129,-633
10515,19042744,-3067,-959,2383,-1624,13189,750
10516,19042754,-3546,-577,4231,-2198,15607,2109
10517,19042764,-3785,-1654,6779,-2201,17169,2970
10518,19042774,-2911,-3791,10039,-2610,18010,3394
10519,19042784,-1975,-3467,10333,-2663,16489,890
10520,19042794,-1443,-3387,9036,-3107,10826,-3105
10521,19042804,-1077,-3552,6828,-3371,2923,-2925
10522,19042814,-1898,-2914,6204,344,-6015,1208
10523,19042824,-1702,-1601,5581,4068,-12101,1771
10524,19042834,-1532,-750,4603,7178,-14822,280
10525,19042844,-2019,-821,3719,8692,-16121,787
10526,19042854,-3018,-1554,2721,8620,-16981,2274
10527,19042864,-3941,-2410,1903,6830,-17197,3368
10528,19042874,-4414,-2269,1029,3940,-16818,4016
10529,19042884,-4763,-3094,-270,1869,-15865,3329
10530,19042881,-4763,-3094,-270,1869,-15865,3574
10531,19042891,-4931,-5000,-3438,-204,-14920,3190
10532,19042901,-4682,-5798,-7930,-3003,-14064,2300
10533,19042911,-5083,-5537,-10709,-4319,-11968,647
10534,19042921,-4418,-3316,-9409,-3692,-5425,-1980
10535,19042931,-3204,-1532,-6540,-1551,3871,-4681
10536,19042941,-1853,-532,-3637,-176,9336,-5342
10537,19042951,-1016,-146,-2501,-233,10646,-3837
10538,19042961,-1138,-381,-1956,-1192,9840,-1372
10539,19042971,-1297,-909,-567,-1707,9706,903
10540,19042981,-1863,-1037,1301,-1980,10973,2600
10541,19042991,-2086,-842,4705,-1521,13494,4035
10542,19043001,-1287,-2281,9655,373,16489,4231
10543,19043011,25,-2082,10842,185,16535,2135
10544,19043021,117,-1858,11089,-668,10479,-337
10545,19043031,-375,-2674,8982,-1220,1712,675
10546,19043041,-1280,-3197,6976,-1167,-6488,3667
10547,19043051,-827,-3077,5577,2059,-11173,3062
10548,19043061,-1204,-2569,3538,3345,-13515,1285
10549,19043071,-1845,-2451,1342,2940,-14884,556
10550,19043081,-2155,-1182,-829,732,-15390,401
10551,19043091,-1932,-1170,-3256,-768,-14156,-347
10552,19043101,-2378,-1675,-5675,-490,-10998,-793
10553,19043111,-2447,-2827,-6351,765,-5663,-357
10554,19043121,-2947,-2323,-5991,1060,-944,1238
10555,19043131,-1335,-2617,-5489,283,2209,256
