sequence,timestamp_ms,accel_x,accel_y,accel_z,gyro_x,gyro_y,gyro_z
520,16791853,-1316,50,4338,-476,16051,1477
521,16791863,-1467,-381,5702,-1885,16899,3472
522,16791873,-999,-2143,7827,-3363,17799,6449
523,16791883,54,-6344,10085,-4950,18701,8886
524,16791893,-1836,-6405,9583,-7976,18133,10592
525,16791903,-2565,-6384,8314,-6918,15282,6559
526,16791913,-2900,-5673,5006,-10774,10812,2015
527,16791923,-3190,-5811,4189,-11986,4390,1389
528,16791933,-2866,-4281,3580,-11640,-1827,-1039
529,16791943,-2344,-2540,2722,-10804,-6004,-3557
530,16791953,-2215,-1393,1872,-8534,-8912,-4973
531,16791963,-2602,-849,747,-5442,-11102,-5570
532,16791973,-3052,-1144,271,-1452,-12167,-5835
533,16791983,-2887,-1805,674,2581,-12988,-6487
534,16791993,-3023,-2128,1089,4178,-13695,-6945
535,16792003,-3639,-2120,1379,3327,-13807,-6568
536,16792013,-5186,-2101,1059,1795,-13626,-5963
537,16792023,-6310,-1900,201,936,-13617,-6013
538,16792033,-6878,-1131,-1750,-970,-14159,-6432
539,16792043,-7325,-164,-4392,-2823,-15946,-6607
540,16792053,-8296,-854,-5076,-3052,-18422,-6495
541,16792063,-7955,-443,-6137,-3408,-17761,-5196
542,16792073,-6708,862,-7620,-4398,-12653,-5198
543,16792083,-5836,1499,-7197,-3134,-5598,-4527
544,16792093,-5275,1109,-5632,-374,563,-2312
545,16792103,-4683,626,-4568,916,3965,-768
546,16792099,-4682,626,-4568,917,3964,-566
547,16792109,-4071,122,-3863,1162,5696,587
548,16792119,-3661,-46,-3452,941,6581,1026
549,16792129,-3197,5,-3226,467,7020,785
550,16792139,-2869,119,-3008,70,7510,659
551,16792149,-2489,200,-2792,-96,8377,660
552,16792159,-2283,219,-2231,37,9622,882
553,16792169,-2007,134,-1663,267,10935,1236
554,16792179,-1806,9,-1015,87,12249,1820
555,16792189,-1671,-243,-349,-326,13306,2632
556,16792199,-1512,-550,341,-895,14023,3632
557,16792209,-1373,-1001,805,-1571,14375,4892
558,16792219,-1455,-1452,1184,-2404,14364,6356
559,16792229,-1736,-1955,1546,-3152,13903,7647
560,16792239,-1524,-2017,1911,-4116,13454,8400
561,16792249,-1938,-2674,1863,-4621,13104,9283
562,16792259,-2954,-4231,1849,-3991,12395,10212
563,16792269,-3459,-6193,2123,-2058,10569,9117
564,16792279,-3575,-7297,2351,-392,7304,5861
565,16792289,-3108,-7648,2926,392,4050,2267
566,16792299,-2526,-6297,2568,-36,347,-640
567,16792309,-1944,-4356,1853,-1430,-3590,-2114
568,16792319,-1853,-3396,1305,-1071,-7151,-2014
569,16792329,-1776,-3259,1457,910,-9888,-2158
570,16792339,-1402,-3266,1970,3025,-11385,-3131
571,16792349,-1020,-3047,2316,4149,-12123,-4354
572,16792346,-1019,-3047,2317,4150,-12124,-4245
573,16792356,-999,-2786,2379,4429,-12579,-4996
574,16792366,-1380,-2460,2298,3792,-13009,-5255
575,16792376,-2123,-2097,1907,2787,-13560,-5180
576,16792386,-2842,-1634,1482,1534,-14011,-5104
577,16792396,-3602,-1305,1081,311,-14324,-4891
578,16792406,-4419,-1048,660,-992,-14434,-4442
579,16792416,-5035,-909,-180,-1950,-14233,-4234
580,16792426,-5562,-545,-1912,-2807,-14220,-4157
581,16792436,-5929,-472,-3810,-2993,-15042,-4245
582,16792446,-6045,-522,-5110,-2797,-15714,-4443
583,16792456,-5479,-174,-5734,-2397,-14351,-4082
584,16792466,-4911,99,-5841,-1284,-10092,-3643
585,16792476,-4762,225,-5609,-30,-5345,-2390
586,16792486,-4505,-254,-4595,1511,-927,-972
587,16792496,-4065,-614,-3550,2302,1710,-3
588,16792506,-3638,-776,-2885,2079,3049,482
589,16792516,-3304,-749,-2788,1421,3627,734
590,16792526,-3054,-623,-2884,1092,4080,700
591,16792536,-2844,-586,-2819,1422,4833,322
592,16792546,-2587,-527,-2520,2131,5833,-238
593,16792556,-2286,-511,-2172,2680,6600,-815
594,16792566,-2022,-362,-1774,2879,7233,-1215
595,16792576,-1792,-270,-1483,2867,7728,-1389
596,16792586,-1604,-210,-1201,2857,8104,-1352
597,16792596,-1439,-206,-776,2996,8456,-1281
598,16792593,-1439,-206,-776,2997,8455,-1049
599,16792603,-1290,-414,-227,3213,9022,-621
600,16792613,-1161,-686,221,3016,9719,-9
601,16792623,-1154,-785,530,2279,10515,754
602,16792633,-1359,-1010,957,1664,11500,1529
603,16792643,-1592,-1265,1453,1151,12460,2353
604,16792653,-1829,-1537,1985,505,13010,3315
605,16792663,-2067,-1819,2590,-162,13255,4453
606,16792673,-2424,-2317,3361,-592,13048,5718
607,16792683,-2894,-4037,4285,-899,12624,6814
608,16792693,-3540,-6856,5137,-1505,12444,7556
609,16792703,-3451,-8046,5775,-2269,12346,6738
610,16792713,-3299,-7888,5407,-3158,10888,2193
611,16792723,-2187,-5340,3811,-5872,8065,-2885
612,16792733,-971,-3287,2634,-6911,4198,-4931
613,16792743,-185,-2095,1660,-6609,515,-4551
614,16792753,-99,-1560,834,-4978,-2838,-3610
615,16792763,-145,-1346,273,-2482,-5526,-3640
616,16792773,-26,-1223,235,25,-7414,-3921
617,16792783,98,-1184,311,2041,-8919,-4205
618,16792793,84,-1249,370,3168,-10159,-4382
619,16792803,-315,-1475,357,3605,-11112,-4225
620,16792813,-1025,-1596,144,3446,-11727,-3703
621,16792823,-1659,-1689,-85,3230,-11986,-3469
622,16792833,-2454,-2023,-669,3071,-12176,-3597
623,16792843,-3182,-2309,-1526,2386,-12146,-3842
624,16792840,-3181,-2310,-1526,2387,-12147,-3688
625,16792850,-3485,-2290,-2784,1683,-11386,-4111
626,16792860,-3574,-1992,-4399,977,-10306,-4413
627,16792870,-3120,-1339,-5285,628,-8738,-4754
628,16792880,-2233,-813,-4932,1227,-6324,-4750
629,16792890,-1567,-539,-4027,1979,-3753,-4044
630,16792900,-1115,-598,-3327,2425,-1884,-2942
631,16792910,-1010,-773,-2897,2145,-741,-1602
632,16792920,-1049,-879,-2948,1587,91,-367
633,16792930,-1118,-1020,-2950,1123,1144,521
634,16792940,-1019,-1188,-2565,1070,2263,950
635,16792950,-840,-1314,-2139,996,3117,1014
636,16792960,-587,-1275,-1807,476,3628,1023
637,16792970,-362,-1143,-1588,-145,3955,1138
638,16792980,-203,-1055,-1367,-582,4237,1341
639,16792990,-115,-1083,-1061,-758,4532,1646
640,16793000,-94,-1294,-767,-670,4791,2021
641,16793010,-100,-1560,-450,-388,5050,2389
642,16793020,-95,-1766,-145,-70,5338,2611
643,16793030,-76,-1910,5,11,5338,2778
644,16793040,-93,-2085,129,-121,4948,2988
645,16793050,-30,-2263,242,-382,4479,3067
646,16793060,16,-2342,225,-656,4035,3051
647,16793070,35,-2404,242,-973,3594,2981
648,16793080,-544,-2391,-479,-1102,3045,2800
649,16793090,220,-2519,148,-713,2716,2049
650,16793086,220,-2519,149,-713,2716,2142
651,16793096,-209,-2313,-285,-440,2383,1828
652,16793106,-162,-2179,-319,-401,1906,1207
653,16793116,-210,-2156,-410,23,1451,733
654,16793126,-220,-2037,-490,246,1064,522
655,16793136,-203,-2038,-469,758,637,326
656,16793146,-96,-2126,-434,1396,203,70
657,16793156,-32,-2094,-390,1767,-173,-56
658,16793166,4,-2001,-341,1876,-467,-122
659,16793176,90,-1905,-316,1774,-707,-97
660,16793186,51,-1940,-329,1512,-794,0
661,16793196,-37,-1831,-392,1037,-695,-11
662,16793206,-41,-1866,-326,512,-538,-116
663,16793216,-121,-1747,-451,23,-227,22
664,16793226,-190,-1870,-473,-504,70,229
665,16793236,-334,-1895,-659,-722,407,594
666,16793246,-251,-2069,-791,-891,536,850
667,16793256,-374,-1920,-889,-898,660,853
668,16793266,-416,-1768,-956,-833,725,749
669,16793276,-287,-1704,-1069,-517,740,508
670,16793286,39,-1640,-1044,-47,643,289
671,16793296,-186,-1530,-1015,414,528,199
672,16793306,-166,-1696,-918,681,-191,203
673,16793316,-313,-1657,-897,404,-334,216
674,16793326,-332,-1744,-977,26,-321,497
675,16793336,-397,-1805,-1048,-322,-313,512
676,16793333,-397,-1806,-1048,-322,-314,703
677,16793343,-373,-1774,-1077,-576,-309,730
678,16793353,-308,-1751,-1070,-680,-308,657
679,16793363,-230,-1688,-1052,-786,-380,630
680,16793373,-157,-1643,-1010,-946,-498,612
681,16793383,-121,-1622,-958,-1130,-684,671
682,16793393,-127,-1528,-944,-1359,-904,880
683,16793403,-356,-1567,-1026,-1545,-1060,1111
684,16793413,-360,-1593,-1171,-1726,-1101,1223
685,16793423,-505,-1479,-1376,-1762,-1100,1130
686,16793433,-566,-1683,-1588,-1435,-1059,796
687,16793443,-666,-1628,-1676,-1140,-1030,257
688,16793453,-607,-1513,-1597,-856,-905,-420
689,16793463,-591,-1484,-1462,-459,-796,-697
690,16793473,-507,-1358,-1494,-365,-257,-685
691,16793483,-438,-1463,-1598,-331,-282,-86
692,16793493,-631,-1510,-1807,-163,23,-67
693,16793503,-682,-1485,-2038,-183,-13,-59
694,16793513,-636,-1437,-2042,104,163,-235
695,16793523,-498,-1324,-1931,410,493,-426
696,16793533,-288,-1248,-1713,618,748,-505
697,16793543,-315,-1252,-1533,795,641,-247
698,16793553,-228,-1208,-1431,838,385,-158
699,16793563,-201,-1220,-1381,788,145,-55
700,16793573,-259,-1264,-1302,814,-4,132
701,16793583,-231,-1328,-1221,813,-64,0
702,16793580,-230,-1329,-1221,814,-65,185
703,16793590,-260,-1372,-1174,731,-110,220
704,16793600,-266,-1355,-1129,660,-162,227
705,16793610,-383,-1549,-1196,647,-262,217
706,16793620,-483,-1650,-1258,554,-410,348
707,16793630,-497,-1605,-1372,310,-516,311
708,16793640,-531,-1563,-1410,106,-581,264
709,16793650,-498,-1489,-1444,85,-562,210
710,16793660,-449,-1422,-1442,162,-500,128
711,16793670,-415,-1344,-1441,233,-468,60
712,16793680,-409,-1297,-1453,321,-452,21
713,16793690,-421,-1286,-1463,471,-449,25
714,16793700,-384,-1296,-1457,587,-404,22
715,16793710,-413,-1315,-1446,660,-384,63
716,16793720,-488,-1398,-1476,700,-404,111
717,16793730,-480,-1522,-1565,675,-341,34
718,16793740,-505,-1318,-1614,10,-314,70
719,16793750,-468,-1414,-1524,348,-204,-32
720,16793760,-456,-1404,-1484,560,-76,-80
721,16793770,-421,-1383,-1448,591,-11,-157
722,16793780,-440,-1401,-1438,679,-20,-168
723,16793790,-443,-1404,-1459,741,-52,-164
724,16793800,-457,-1381,-1483,809,-65,-144
725,16793810,-427,-1413,-1420,913,3,-164
726,16793820,-403,-1386,-1361,916,60,-146
727,16793830,-371,-1405,-1290,830,92,-256
728,16793826,-371,-1405,-1290,831,92,-109
729,16793836,-382,-1452,-1262,693,3,-44
730,16793846,-405,-1504,-1308,501,-153,-35
731,16793856,-298,-1269,-1303,333,-279,-39
732,16793866,-381,-1846,-1325,695,-651,-149
733,16793876,-534,-1208,-1491,-85,-527,-399
734,16793886,-409,-1412,-1406,799,-623,-341
735,16793896,-350,-1235,-1464,463,-599,-386
736,16793906,-315,-1243,-1442,509,-548,-214
737,16793916,-327,-1242,-1463,432,-459,-173
738,16793926,-363,-1245,-1488,380,-338,-41
739,16793936,-369,-1294,-1490,395,-259,-4
740,16793946,-431,-1435,-1539,372,-195,3
741,16793956,-382,-1383,-1329,422,-286,88
742,16793966,-496,-1424,-1442,581,-216,-73
743,16793976,-391,-1303,-1545,347,-361,-53
744,16793986,-475,-1412,-1498,569,-392,183
745,16793996,-517,-1518,-1450,774,-343,207
746,16794006,-421,-1434,-1408,762,-278,189
747,16794016,-448,-1374,-1417,769,-178,77
748,16794026,-436,-1360,-1372,711,-155,70
749,16794036,-437,-1324,-1374,784,-141,112
750,16794046,-408,-1376,-1374,803,-165,100
751,16794056,-435,-1383,-1378,740,-163,99
752,16794066,-432,-1405,-1353,695,-153,76
753,16794076,-395,-1350,-1367,636,-111,0
754,16794073,-395,-1350,-1367,637,-111,13
755,16794083,-370,-1346,-1355,634,-23,-73
756,16794093,-369,-1374,-1312,599,70,-130
757,16794103,-371,-1366,-1332,496,108,-134
758,16794113,-385,-1392,-1406,469,91,-114
759,16794123,-412,-1261,-1441,483,125,-129
760,16794133,-382,-1306,-1266,722,73,-31
761,16794143,-439,-1420,-1259,1011,-237,422
762,16794153,-465,-1563,-1298,966,-566,607
763,16794163,-490,-1529,-1385,828,-705,478
764,16794173,-484,-1475,-1431,656,-632,314
765,16794183,-468,-1446,-1446,640,-438,205
766,16794193,-486,-1444,-1404,623,-243,104
767,16794203,-505,-1422,-1394,603,-124,19
768,16794213,-484,-1397,-1388,602,-42,-75
769,16794223,-490,-1457,-1355,661,20,-145
770,16794233,-491,-1476,-1344,657,67,-210
771,16794243,-462,-1371,-1341,494,121,-283
772,16794253,-383,-1123,-1203,528,113,-252
773,16794263,-353,-1357,-1133,1054,-186,95
774,16794273,-510,-1517,-1245,1058,-588,551
775,16794283,-542,-1512,-1423,823,-690,501
776,16794293,-521,-1474,-1465,795,-488,268
777,16794303,-497,-1520,-1285,1027,-210,180
778,16794313,-476,-1493,-1250,972,-51,139
779,16794323,-367,-1138,-1225,805,19,0
780,16794320,-367,-1138,-1225,806,18,57
781,16794330,-526,-1909,-1305,1105,148,-310
782,16794340,-468,-1573,-1442,73,-44,291
783,16794350,-577,-1524,-1441,359,87,-280
784,16794360,-464,-1447,-1406,396,287,-393
785,16794370,-501,-1511,-1395,507,361,-474
786,16794380,-480,-1473,-1452,476,389,-547
787,16794390,-493,-1521,-1485,419,420,-664
788,16794400,-491,-1432,-1468,377,508,-776
789,16794410,-461,-1435,-1441,486,530,-879
790,16794420,-425,-1468,-1477,566,496,-894
791,16794430,-1122,-3027,-2288,594,430,-814
792,16794440,-442,-1022,-1407,-42,378,-573
793,16794450,-472,-1687,-1485,1038,477,-1231
794,16794460,-648,-2075,-1662,1282,220,-830
795,16794470,-765,-1830,-1947,609,-105,-614
796,16794480,-774,-1918,-2133,152,-527,-1011
797,16794490,-754,-1796,-2090,1037,-298,-1272
798,16794500,-657,-1531,-1970,1494,-45,-1621
799,16794510,-455,-1358,-1652,2210,277,-2063
800,16794520,-248,-1266,-1431,2665,494,-2283
801,16794530,-116,-1296,-1333,2769,568,-2164
802,16794540,-158,-1378,-1200,2742,592,-1794
803,16794550,-166,-1510,-1162,2664,518,-1495
804,16794560,-145,-1579,-1186,2489,363,-1298
805,16794570,-135,-1632,-1257,2431,249,-1537
806,16794566,-134,-1633,-1257,2431,248,-1299
807,16794576,-195,-1736,-1428,2515,298,-1382
808,16794586,-192,-1774,-1500,2721,386,-1434
809,16794596,-211,-1813,-1615,2918,371,-1530
810,16794606,-233,-1854,-1660,3108,306,-1548
811,16794616,-291,-1870,-1732,3350,390,-1597
812,16794626,-225,-1873,-1705,3692,708,-1779
813,16794636,-197,-1885,-1556,3998,1046,-1923
814,16794646,-156,-1918,-1459,4182,1291,-2042
815,16794656,-151,-1925,-1269,4205,1694,-2173
816,16794666,-83,-1904,-1042,4207,2075,-2317
817,16794676,-19,-1872,-915,4144,2342,-2491
818,16794686,64,-1785,-713,4085,2733,-2748
819,16794696,167,-1741,-446,4093,3243,-2934
820,16794706,167,-1778,-369,4095,3514,-3008
821,16794716,203,-1687,-199,4090,3729,-3128
822,16794726,345,-1541,54,4301,4051,-3575
823,16794736,483,-1331,360,4422,4347,-3879
824,16794746,612,-1095,734,4577,4476,-3939
825,16794756,720,-914,1059,4709,4323,-3824
826,16794766,731,-884,1220,4754,3912,-3483
827,16794776,648,-868,1317,4665,3536,-3079
828,16794786,624,-784,1592,4471,3497,-2888
829,16794796,692,-679,1936,4252,3457,-2795
830,16794806,765,-639,2182,3931,3224,-2580
831,16794816,755,-580,2296,3493,2921,-2561
832,16794813,756,-580,2297,3493,2921,-2371
833,16794823,808,-504,2404,3102,2711,-2373
834,16794833,926,-366,2582,2700,2485,-2447
835,16794843,1003,-150,2684,2248,2166,-2442
836,16794853,1061,49,2770,1894,1858,-2397
837,16794863,1091,213,2862,1627,1403,-2158
838,16794873,1158,338,2850,1309,832,-1717
839,16794883,1120,332,2756,935,214,-1127
840,16794893,1066,326,2504,579,-294,-552
841,16794903,1013,297,2307,382,-608,-137
842,16794913,988,210,2159,349,-860,242
843,16794923,981,87,2048,372,-1092,604
844,16794933,921,-69,1932,368,-1408,1026
845,16794943,861,-224,1737,271,-1706,1441
846,16794953,812,-346,1574,199,-1889,1741
847,16794963,834,-452,1504,228,-1997,1923
848,16794973,843,-555,1496,240,-2195,2242
849,16794983,805,-603,1508,137,-2385,2582
850,16794993,745,-599,1496,-22,-2556,2951
851,16795003,680,-501,1501,-134,-2795,3376
852,16795013,583,-224,1629,-40,-3096,3899
853,16795023,370,-89,2264,450,-3514,4838
854,16795033,92,-173,3172,910,-3917,5992
855,16795043,-350,-687,4414,1188,-4424,7205
856,16795053,-984,-1237,5298,1089,-5153,7898
857,16795063,-1493,-1213,5297,514,-6189,7683
858,16795060,-1493,-1214,5298,515,-6189,7687
859,16795070,-1657,-948,4839,188,-7484,6961
860,16795080,-1967,-757,4157,12,-9195,6727
861,16795090,-2352,-757,3624,136,-10570,6654
862,16795100,-2727,-908,3194,302,-11413,6390
863,16795110,-3310,-1444,2682,75,-11877,6225
864,16795120,-3929,-1835,2089,-685,-12502,6233
865,16795130,-4748,-2637,1510,-1415,-13487,6190
866,16795140,-5653,-3400,925,-2577,-14289,5963
867,16795150,-6116,-3361,-319,-4093,-14768,5375
868,16795160,-6286,-2757,-2878,-5701,-14935,3897
869,16795170,-6997,-2888,-5140,-6866,-15229,2828
870,16795180,-7157,-2602,-6553,-7457,-14854,2182
871,16795190,-6309,-2124,-7290,-6607,-10884,-337
872,16795200,-6052,-1554,-7139,-4463,-5156,-1846
873,16795210,-5713,-2247,-5587,-263,887,-523
874,16795220,-5227,-2740,-4034,2737,3588,-26
875,16795230,-4510,-2592,-3359,2768,3984,-1035
876,16795240,-4116,-2062,-3220,1868,4194,-2179
877,16795250,-3685,-1606,-2955,1716,5056,-2999
878,16795260,-3269,-1208,-2446,2014,6456,-3744
879,16795270,-2853,-871,-1780,2202,7736,-4338
880,16795280,-2497,-550,-1103,2345,8880,-4728
881,16795290,-2126,-262,-470,2511,9823,-4960
882,16795300,-1862,-48,140,2665,10317,-5010
883,16795310,-1615,233,520,2531,10336,-5122
884,16795306,-1615,232,521,2532,10335,-5093
885,16795316,-1408,603,926,2388,10251,-5152
886,16795326,-1342,1108,1548,2515,10291,-5072
887,16795336,-1335,1704,2717,2897,10626,-4820
888,16795346,-1025,1759,4803,3308,11396,-4036
889,16795356,-541,1617,7642,2574,12921,-3153
890,16795366,1798,1508,10431,-31,15654,-2406
891,16795376,1258,473,10536,-3882,16704,-76
892,16795386,-783,-1375,10966,-4207,13258,2940
893,16795396,-460,-1284,10853,-1380,7440,1422
894,16795406,-12,-116,9517,-215,1057,315
895,16795416,49,547,8403,242,-4965,1658
896,16795426,-137,1620,6670,-53,-9234,3273
897,16795436,-590,1701,5291,438,-11849,4376
898,16795446,-1432,1114,4515,1257,-12983,5602
899,16795456,-2169,601,3841,1980,-13440,6203
900,16795466,-2853,-86,3287,2028,-13333,6480
901,16795476,-3739,-1014,2634,1495,-13225,6739
902,16795486,-4736,-2305,1808,451,-13086,6817
903,16795496,-5235,-3093,1023,-863,-13270,6722
904,16795506,-5674,-3706,348,-1434,-13692,5408
905,16795516,-5830,-3635,-1082,-2572,-13542,3830
906,16795526,-6247,-3338,-3356,-4397,-12440,2443
907,16795536,-6236,-3460,-5382,-5277,-10107,1783
908,16795546,-6001,-3832,-5728,-3553,-6849,1543
909,16795556,-5914,-4077,-5374,-1811,-2303,1024
910,16795553,-5913,-4078,-5373,-1810,-2303,1216
911,16795563,-5727,-4227,-4898,-677,1051,868
912,16795573,-5278,-4320,-4128,600,3023,243
913,16795583,-4604,-4052,-3356,1272,3814,-1008
914,16795593,-4024,-3317,-2999,1064,4085,-2611
915,16795603,-3446,-2489,-2579,978,4505,-4021
916,16795613,-2962,-1731,-2025,1068,5254,-4976
917,16795623,-2599,-1175,-1472,1247,6058,-5455
918,16795633,-2338,-742,-946,1443,6960,-5602
919,16795643,-2151,-316,-357,1620,8042,-5664
920,16795653,-2008,-24,335,2108,8934,-5644
921,16795663,-1821,234,1025,2565,9555,-5659
922,16795673,-1784,609,1750,2867,9784,-5389
923,16795683,-1917,1110,2618,3056,10151,-5177
924,16795693,-1780,1604,4151,3090,10876,-4870
925,16795703,-1220,1783,6440,2750,12187,-4713
926,16795713,676,2063,9574,1262,14394,-4366
927,16795723,2730,1050,12034,-801,16159,-4481
928,16795733,227,1126,10781,-2914,15127,-2335
929,16795743,-473,1112,9635,-2749,10424,-2280
930,16795753,369,1212,9198,-2074,5041,-2937
931,16795763,455,1624,8341,-2893,-603,-568
932,16795773,128,1993,6972,-2824,-5427,1880
933,16795783,-381,1886,5810,-1470,-8889,3527
934,16795793,-979,1599,4868,52,-11253,4813
935,16795803,-1554,1077,4165,1185,-12341,5891
936,16795800,-1554,1077,4165,1185,-12341,5907
937,16795810,-2150,485,3710,1931,-12730,6604
938,16795820,-2856,-309,3162,2050,-12825,6932
939,16795830,-3759,-1295,2503,1286,-12826,7302
940,16795840,-4554,-2299,1640,163,-13043,7466
941,16795850,-4976,-3023,967,-882,-13549,6754
942,16795860,-5375,-3570,467,-1011,-14076,5590
943,16795870,-5604,-3849,-794,-2099,-13358,4122
944,16795880,-5965,-4021,-2355,-3784,-11793,3278
945,16795890,-6030,-4314,-4023,-5160,-10297,2869
946,16795900,-5923,-4351,-5431,-5993,-8264,2334
947,16795910,-5760,-3747,-6148,-6382,-5232,818
948,16795920,-5132,-3233,-5885,-4999,-622,-719
949,16795930,-4681,-3151,-4789,-1724,3100,-462
950,16795940,-4020,-2996,-3725,465,4783,-794
951,16795950,-3448,-2627,-2977,1475,4946,-1867
952,16795960,-3075,-2191,-2566,1558,4997,-3095
953,16795970,-2782,-1625,-2218,1371,5549,-3898
954,16795980,-2572,-1222,-1786,1293,6596,-4418
955,16795990,-2413,-918,-1317,1213,7999,-4766
956,16796000,-2285,-595,-512,1138,9838,-4850
957,16796010,-2081,-501,422,1127,11253,-4585
958,16796020,-1885,-459,1254,534,12026,-4111
959,16796030,-2043,-404,1844,-611,12621,-3331
960,16796040,-2318,-274,2436,-1616,13159,-2347
961,16796050,-2642,6,3243,-2132,13949,-1537
962,16796047,-2642,5,3243,-2131,13949,-1512
963,16796057,-2909,295,4364,-1962,15135,-811
964,16796067,-2514,127,6427,-892,16205,-745
965,16796077,-1202,-1772,9522,526,16533,-1115
966,16796087,-1132,-2531,12074,1060,16676,-1878
967,16796097,-1688,-938,10898,1734,14515,-4885
968,16796107,243,241,8750,901,9073,-7699
969,16796117,-263,534,8513,-185,1274,-2847
970,16796127,-716,920,8063,-264,-4679,2069
971,16796137,-817,1104,6828,935,-7546,3350
972,16796147,-1314,1000,5808,1720,-9781,4554
973,16796157,-1857,771,5127,2254,-11568,5818
974,16796167,-2181,563,4592,2523,-12510,6412
975,16796177,-2438,289,4082,2471,-12805,6637
976,16796187,-2791,8,3525,1948,-12946,6754
977,16796197,-3406,-327,3063,1197,-13139,6818
978,16796207,-4365,-1148,2393,271,-13401,7052
979,16796217,-5164,-1871,1584,-1176,-13740,7318
980,16796227,-5937,-3052,1010,-2084,-14315,7005
981,16796237,-6671,-4166,493,-2456,-14743,6332
982,16796247,-6677,-3901,-1046,-3880,-14211,5106
983,16796257,-6613,-3555,-4242,-5955,-13642,3356
984,16796267,-7256,-4053,-6382,-7240,-13423,2251
985,16796277,-6285,-4006,-6966,-6796,-11395,1120
986,16796287,-5875,-3160,-7082,-5932,-6222,-601
987,16796297,-5380,-2247,-6452,-4445,170,-1793
988,16796293,-5380,-2248,-6452,-4444,169,-1779
989,16796303,-4657,-2480,-4628,-249,4992,-1047
990,16796313,-3822,-2552,-3322,2181,6737,-1150
991,16796323,-3277,-2626,-2605,2941,6750,-1760
992,16796333,-3078,-2485,-2540,2580,6336,-2604
993,16796343,-2897,-1862,-2339,1491,6771,-3784
994,16796353,-2647,-1215,-1742,975,8032,-4580
995,16796363,-2324,-745,-915,837,9313,-5000
996,16796373,-2087,-437,-267,484,10209,-4779
997,16796383,-1933,-414,189,-281,10928,-4297
998,16796393,-1828,-292,600,-1135,11652,-3649
999,16796403,-1802,-160,938,-1823,12457,-3077
1000,16796413,-2021,-9,1181,-1995,13158,-2450
1001,16796423,-2424,171,1607,-1611,13767,-1769
1002,16796433,-2784,339,2570,-711,14381,-1126
1003,16796443,-3188,223,4123,408,15055,-445
1004,16796453,-3342,-925,6626,1332,15523,505
1005,16796463,-2543,-2968,10034,1573,16295,881
1006,16796473,-3089,-3280,11445,1303,16875,-631
1007,16796483,-2705,-1912,9961,229,14046,-5645
1008,16796493,-960,-925,8268,-2915,8385,-8089
1009,16796503,-1532,-907,7708,-4471,1279,-2545
1010,16796513,-1637,-680,7364,-4523,-3746,1612
1011,16796523,-1596,-139,6359,-3652,-6982,2925
1012,16796533,-1698,281,5470,-2165,-9864,3207
1013,16796543,-1965,84,5055,-325,-12069,3586
1014,16796540,-1965,83,5056,-324,-12070,3658
1015,16796550,-2396,-153,4591,531,-13146,4228
1016,16796560,-2725,-259,4044,560,-13520,4343
1017,16796570,-2917,-419,3594,318,-13594,4185
1018,16796580,-3268,-590,3156,-337,-13875,4197
1019,16796590,-3841,-633,2635,-1339,-14477,4129
1020,16796600,-4450,-433,1976,-2474,-15044,3912
1021,16796610,-5243,-522,1248,-3662,-15214,3700
1022,16796620,-6350,-1328,151,-4826,-15166,3831
1023,16796630,-7125,-1614,-1100,-6062,-15356,3933
1024,16796640,-7362,-1253,-2962,-6689,-15538,3484
1025,16796650,-8190,-1133,-4802,-7078,-16358,3475
1026,16796660,-8741,-1894,-6482,-6783,-17441,3453
1027,16796670,-7932,-2276,-8104,-6008,-13675,1625
1028,16796680,-7703,-1440,-8674,-6240,-6557,-243
1029,16796690,-7153,-1094,-6781,-4290,2424,-770
1030,16796700,-5864,-863,-4766,-132,7771,-484
1031,16796710,-4741,-876,-3696,2421,9223,-696
1032,16796720,-4140,-1070,-3135,3537,9222,-924
1033,16796730,-3814,-1205,-2931,3105,9435,-1385
1034,16796740,-3470,-1009,-2393,1799,10687,-2017
1035,16796750,-3043,-966,-1714,821,11980,-2361
1036,16796760,-2703,-804,-1137,-480,13002,-2223
1037,16796770,-2460,-618,-561,-1885,13884,-1814
1038,16796780,-2148,-452,-17,-3072,14819,-1227
1039,16796790,-1921,-365,488,-4052,15453,-512
1040,16796787,-1921,-366,489,-4051,15453,-285
1041,16796797,-1682,-390,991,-4904,15588,928
1042,16796807,-1361,-448,1663,-5732,15399,2231
1043,16796817,-975,-545,2478,-6208,14795,3496
1044,16796827,-445,-711,3012,-6335,13628,4683
1045,16796837,-77,-707,3368,-6574,12327,5708
1046,16796847,147,-1031,3678,-6379,10809,6553
1047,16796857,288,-2493,4734,-5590,8995,7460
1048,16796867,-279,-4007,5548,-4691,6858,7901
1049,16796877,-2224,-4894,5863,-4249,3696,7755
1050,16796887,-4652,-4962,4435,-4656,-241,6541
1051,16796897,-6214,-5531,3249,-4913,-4942,5597
1052,16796907,-6671,-5418,2947,-4847,-9189,4438
1053,16796917,-6828,-4866,2127,-6045,-11978,3597
1054,16796927,-6633,-4366,1246,-6899,-13043,1863
1055,16796937,-6128,-3768,344,-7340,-13083,-394
1056,16796947,-5633,-3263,-653,-7054,-12346,-2863
1057,16796957,-5200,-2781,-1256,-6287,-11299,-5232
1058,16796967,-4671,-1873,-1338,-4945,-10068,-7123
1059,16796977,-4344,-861,-1336,-3295,-9060,-8571
1060,16796987,-4526,-211,-1325,-1605,-8381,-9453
1061,16796997,-5080,111,-1357,-159,-8390,-9840
1062,16797007,-5466,474,-2088,493,-9287,-10012
1063,16797017,-5972,384,-3062,497,-10166,-9977
1064,16797027,-6241,593,-4491,514,-10132,-9129
1065,16797037,-6312,237,-5601,899,-9592,-7940
1066,16797034,-6312,236,-5601,900,-9593,-7916
1067,16797044,-6116,-328,-6474,992,-8399,-6818
1068,16797054,-5892,-893,-7077,1047,-6565,-6018
1069,16797064,-5379,-1024,-7393,1040,-3994,-5983
1070,16797074,-4557,-743,-6974,1420,-600,-6403
1071,16797084,-3651,-358,-6192,1744,2504,-6651
1072,16797094,-2957,19,-5269,1460,4760,-6556
1073,16797104,-2489,359,-4740,758,6665,-6101
1074,16797114,-2241,635,-4277,11,8655,-5387
1075,16797124,-2140,657,-3391,-94,10982,-4530
1076,16797134,-2003,522,-2241,-136,12985,-3834
1077,16797144,-2012,405,-1137,-980,14107,-2942
1078,16797154,-2027,114,-285,-1737,14869,-1971
1079,16797164,-2047,-87,484,-2557,15457,-1412
1080,16797174,-1997,-272,1211,-3247,15683,-1030
1081,16797184,-1943,-356,1794,-4210,15326,-528
1082,16797194,-2161,-276,2457,-5340,14679,621
1083,16797204,-2326,-382,3568,-5891,14127,2155
1084,16797214,-2021,-806,5042,-6184,13886,3586
1085,16797224,-1277,-2687,7155,-6390,13820,4567
1086,16797234,-1005,-3788,8730,-6505,13539,4684
1087,16797244,-1440,-4407,8077,-5207,11740,1515
1088,16797254,-2471,-5641,5450,-4231,4640,-1012
1089,16797264,-3477,-5076,3159,-4129,-5855,1710
1090,16797274,-4735,-4984,3567,276,-13311,4800
1091,16797284,-4041,-4143,3437,2409,-16600,4098
