sequence,timestamp_ms,accel_x,accel_y,accel_z,gyro_x,gyro_y,gyro_z
1560,16801721,896,-1802,342,581,-117,-98
1561,16801731,889,-1803,366,580,-117,-89
1562,16801741,905,-1777,358,560,-122,-73
1563,16801751,931,-1775,350,552,-128,-68
1564,16801761,902,-1774,362,571,-132,-43
1565,16801771,923,-1784,375,592,-136,-42
1566,16801781,920,-1796,379,596,-162,-15
1567,16801791,924,-1790,354,574,-196,-4
1568,16801801,902,-1780,340,569,-216,1
1569,16801811,899,-1789,326,582,-211,8
1570,16801821,919,-1801,331,580,-209,1
1571,16801831,891,-1809,310,570,-207,-2
1572,16801841,884,-1810,312,553,-217,9
1573,16801851,892,-1820,304,539,-218,18
1574,16801861,889,-1836,314,549,-208,15
1575,16801871,888,-1832,318,556,-213,14
1576,16801881,875,-1843,303,561,-229,24
1577,16801891,890,-1842,289,553,-218,6
1578,16801901,881,-1814,289,563,-199,-15
1579,16801911,898,-1822,299,554,-182,-13
1580,16801921,910,-1829,277,545,-188,1
1581,16801931,879,-1819,264,527,-201,15
1582,16801941,857,-1839,257,533,-197,14
1583,16801951,873,-1835,255,552,-185,5
1584,16801961,894,-1828,290,565,-185,5
1585,16801971,878,-1840,296,571,-192,0
1586,16801967,878,-1841,297,572,-193,18
1587,16801977,921,-1827,305,567,-195,17
1588,16801987,931,-1835,284,555,-198,24
1589,16801997,923,-1908,323,559,-194,40
1590,16802007,909,-1916,153,504,-195,39
1591,16802017,910,-2053,19,460,-112,-24
1592,16802027,768,-2298,-296,296,-6,-21
1593,16802037,460,-2804,-713,59,348,-244
1594,16802047,61,-2915,-1148,-655,1218,-731
1595,16802057,25,-2797,-1245,-1158,2652,-1614
1596,16802067,158,-2331,-882,-1856,4400,-2266
1597,16802077,755,-1702,51,-2847,6067,-2442
1598,16802087,1439,-960,1329,-3854,6949,-1950
1599,16802097,1875,-366,2939,-4485,6704,-722
1600,16802107,2785,-236,4673,-4657,4994,63
1601,16802117,2854,-290,5198,-5832,1819,1640
1602,16802127,2223,-864,5098,-6346,-1694,3198
1603,16802137,1614,-1274,6174,-4035,-4668,3360
1604,16802147,443,-2235,7675,38,-7384,3082
1605,16802157,-814,-3134,8705,1818,-10656,3469
1606,16802167,-2136,-3533,8816,1860,-12983,3467
1607,16802177,-3217,-3152,8130,1035,-14854,2809
1608,16802187,-4144,-2385,7061,-215,-16545,1934
1609,16802197,-5290,-1854,5701,-1660,-18105,1441
1610,16802207,-6316,-1226,4355,-3024,-19323,925
1611,16802217,-7119,-931,3195,-3337,-19552,0
1612,16802214,-7119,-931,3195,-3337,-19553,47
1613,16802224,-7802,-264,1795,-3540,-18986,-480
1614,16802234,-7914,327,301,-3492,-17958,-801
1615,16802244,-8986,405,-2071,-2695,-16433,-970
1616,16802254,-9986,-236,-4609,-2007,-14368,-90
1617,16802264,-10105,-1107,-6033,-1199,-11504,232
1618,16802274,-10344,-1452,-6824,-554,-7349,-8
1619,16802284,-10243,-1617,-6964,197,-2862,-429
1620,16802294,-9829,-1794,-6750,728,381,-897
1621,16802304,-8981,-1635,-6173,1151,2463,-1621
1622,16802314,-7952,-1459,-5251,1978,4429,-2686
1623,16802324,-7063,-1064,-4222,2777,6368,-3957
1624,16802334,-6207,-479,-2994,3087,8190,-5333
1625,16802344,-5456,15,-1690,3153,9602,-6371
1626,16802354,-4842,536,-577,3137,10809,-6972
1627,16802364,-4400,924,206,3130,11859,-7277
1628,16802374,-4255,1343,964,3110,12882,-7207
1629,16802384,-4171,1448,1898,3397,13741,-6826
1630,16802394,-4129,1504,3091,3589,14379,-6065
1631,16802404,-4199,1619,4641,3346,15040,-5109
1632,16802414,-3285,1487,7760,2843,16089,-4434
1633,16802424,-1437,1991,11146,1176,18306,-3387
1634,16802434,1898,940,14087,-1519,19814,-2663
1635,16802444,1913,-411,16061,-2591,18253,-674
1636,16802454,1349,-1612,16387,-1053,9591,1799
1637,16802464,395,-720,13858,-1262,-2111,1024
1638,16802461,396,-721,13859,-1261,-2111,1062
1639,16802471,1018,1473,11187,-1784,-9387,2128
1640,16802481,783,2147,9336,-645,-13171,2516
1641,16802491,-585,1600,8180,938,-15029,3940
1642,16802501,-2191,1014,7199,1820,-15873,5199
1643,16802511,-3637,581,6192,1722,-16409,5783
1644,16802521,-4973,296,5353,1100,-16729,5850
1645,16802531,-6548,-652,4244,225,-17000,5998
1646,16802541,-8060,-1729,2771,-941,-17187,6099
1647,16802551,-8958,-3079,1678,-1561,-17084,5662
1648,16802561,-9558,-3421,557,-1504,-16212,4604
1649,16802571,-10118,-3058,-1385,-2183,-14689,3345
1650,16802581,-10802,-2616,-4506,-3464,-12834,3015
1651,16802591,-10867,-3471,-5826,-3286,-11347,2732
1652,16802601,-10356,-4007,-6289,-2652,-8079,1920
1653,16802611,-10829,-3814,-7530,-3031,-3690,1038
1654,16802621,-9608,-3480,-6218,-1288,1077,-914
1655,16802631,-7977,-2763,-4381,790,4771,-2721
1656,16802641,-6378,-2025,-2759,1964,6592,-4430
1657,16802651,-5323,-1292,-1907,1978,7303,-5572
1658,16802661,-4608,-553,-1336,1397,7914,-6215
1659,16802671,-3970,101,-747,936,8893,-6551
1660,16802681,-3492,593,7,767,10189,-6670
1661,16802691,-3138,868,801,837,11391,-6641
1662,16802701,-2790,1181,1567,793,12210,-6430
1663,16802711,-2591,1370,2241,703,12968,-6147
1664,16802708,-2590,1370,2242,703,12967,-6044
1665,16802718,-2732,1496,3154,559,13868,-5245
1666,16802728,-3086,1673,4556,622,14970,-4536
1667,16802738,-3345,1863,7001,531,16569,-4086
1668,16802748,-1670,1775,10852,-144,18903,-3988
1669,16802758,3767,-556,15092,-1594,21371,-3687
1670,16802768,2633,-231,15494,-3774,20531,-2256
1671,16802778,312,-365,14324,-1756,14029,-1424
1672,16802788,-143,-405,12454,-3268,4036,-823
1673,16802798,-344,-86,11016,-6013,-5442,2631
1674,16802808,-285,1112,8386,-5321,-10106,2536
1675,16802818,-893,1686,6221,-3629,-12368,2353
1676,16802828,-1742,1462,5116,-1478,-13782,3271
1677,16802838,-2481,958,4504,154,-14390,4054
1678,16802848,-3306,382,4077,1014,-14658,4523
1679,16802858,-4468,-590,3555,1374,-14833,4993
1680,16802868,-5871,-1595,2574,763,-15125,5381
1681,16802878,-6996,-2231,1575,-373,-15434,5588
1682,16802888,-7930,-3696,807,-762,-15780,4872
1683,16802898,-7984,-3437,-340,-1043,-15624,3658
1684,16802908,-9250,-3119,-3428,-2324,-14078,2465
1685,16802918,-8532,-2609,-6735,-2867,-11534,1997
1686,16802928,-8155,-4240,-7501,-808,-9297,1823
1687,16802938,-7394,-3552,-7470,-1062,-5696,1352
1688,16802948,-6686,-2590,-7276,-3016,-1132,417
1689,16802958,-5933,-2170,-6382,-1948,2146,0
1690,16802954,-5933,-2170,-6382,-1948,2145,163
1691,16802964,-4888,-1995,-5027,-412,4117,-307
1692,16802974,-4067,-1712,-3935,992,5070,-1069
1693,16802984,-3312,-1249,-3233,1452,5581,-2046
1694,16802994,-2767,-564,-2723,1387,6373,-2999
1695,16803004,-2215,156,-2010,1336,7788,-3631
1696,16803014,-1624,590,-887,1554,9608,-3741
1697,16803024,-838,850,262,1285,11162,-3003
1698,16803034,-13,651,1793,418,12749,-1680
1699,16803044,831,590,2936,-1316,14357,-102
1700,16803054,1375,391,3479,-3603,15021,1595
1701,16803064,1288,68,3717,-5127,14597,3137
1702,16803074,272,-1280,3360,-5213,13492,4033
1703,16803084,-949,-2393,2865,-5564,11689,5521
1704,16803094,-1450,-3723,2965,-4731,9936,5465
1705,16803104,-1797,-4602,2993,-3468,8015,4305
1706,16803114,-1745,-4384,2321,-3716,6410,2942
1707,16803124,-1361,-3918,1812,-4144,4797,1297
1708,16803134,-1053,-3417,1269,-3988,3374,304
1709,16803144,-761,-2867,568,-3794,2152,-428
1710,16803154,-455,-2287,-240,-3451,897,-1040
1711,16803164,-337,-2072,-894,-2330,-118,-1071
1712,16803174,-280,-2029,-1421,-929,-928,-893
1713,16803184,-259,-2091,-1635,257,-1560,-628
1714,16803194,-269,-2232,-1704,1180,-1870,-197
1715,16803204,-307,-2233,-1795,1701,-1910,0
1716,16803201,-307,-2234,-1795,1701,-1910,140
1717,16803211,-281,-2244,-1704,2249,-1483,24
1718,16803221,-94,-2216,-1369,2595,-864,-433
1719,16803231,134,-2122,-1071,2284,-436,-723
1720,16803241,196,-2032,-1015,1408,-317,-675
1721,16803251,240,-1907,-1405,163,-327,-486
1722,16803261,341,-1896,-1759,-726,-329,-144
1723,16803271,363,-1693,-1992,-1187,-441,244
1724,16803281,426,-1723,-1880,-874,-465,375
1725,16803291,395,-1754,-1610,-345,-403,551
1726,16803301,394,-1677,-1393,82,-429,565
1727,16803311,319,-1690,-1108,511,-533,525
1728,16803321,246,-1758,-900,948,-670,518
1729,16803331,193,-1763,-829,926,-883,442
1730,16803341,119,-1819,-840,714,-1072,444
1731,16803351,-35,-1817,-933,368,-1184,506
1732,16803361,-123,-1874,-1040,241,-1172,579
1733,16803371,-125,-1905,-1055,270,-891,467
1734,16803381,-138,-2026,-1022,271,-515,208
1735,16803391,-122,-1871,-957,-6,-216,9
1736,16803401,-64,-1854,-1053,1,-101,-108
1737,16803411,-25,-1906,-1146,131,148,-270
1738,16803421,-55,-1973,-1018,487,511,-540
1739,16803431,43,-1876,-886,759,574,-839
1740,16803441,138,-1769,-937,616,387,-998
1741,16803451,132,-1841,-936,512,334,-1281
1742,16803448,133,-1842,-936,513,333,-1059
1743,16803458,231,-1755,-800,323,457,-1280
1744,16803468,328,-1575,-609,88,372,-1479
1745,16803478,470,-1286,-511,-173,165,-1538
1746,16803488,503,-1185,-516,-257,-70,-1365
1747,16803498,534,-1076,-623,-451,-194,-1047
1748,16803508,518,-973,-722,-678,-339,-637
1749,16803518,479,-812,-835,-864,-413,-242
1750,16803528,511,-305,-954,-1044,-550,439
1751,16803538,-77,-1715,-923,-374,-929,1987
1752,16803548,-716,-3893,-1556,897,-1249,3233
1753,16803558,-617,-2218,-2750,-5465,-1912,1791
1754,16803568,72,-774,-2725,-2379,-1616,-495
1755,16803578,224,-1538,-1698,350,-377,210
1756,16803588,75,-1772,-1405,1113,-276,760
1757,16803598,137,-1464,-1500,1079,-730,839
1758,16803608,90,-1319,-1615,959,-912,749
1759,16803618,-29,-1479,-1605,1229,-863,844
1760,16803628,-179,-1599,-1709,1299,-858,872
1761,16803638,-246,-1812,-1831,1489,-836,800
1762,16803648,-210,-2121,-2103,1811,-815,666
1763,16803658,-1417,-2600,-2835,2052,-761,702
1764,16803668,-1211,-1831,-2776,1465,-712,1084
1765,16803678,-849,-2971,-1949,4532,-555,828
1766,16803688,-1064,-2184,-1889,3198,-103,-125
1767,16803698,-709,-1905,-1987,3070,115,-2049
1768,16803694,-709,-1906,-1987,3070,115,-1995
1769,16803704,-723,-1824,-1921,3782,267,-2487
1770,16803714,-687,-2020,-1984,4341,418,-2753
1771,16803724,-822,-2122,-2172,4298,766,-2979
1772,16803734,-837,-2191,-2209,4128,1199,-3268
1773,16803744,-755,-2072,-2194,3972,1673,-3614
1774,16803754,-661,-1943,-2128,3915,2105,-3716
1775,16803764,-567,-1775,-1974,3673,2522,-3734
1776,16803774,-533,-1443,-1812,3467,3170,-3728
1777,16803784,-454,-1314,-1576,3652,4121,-3866
1778,16803794,-450,-1227,-1167,4075,5182,-4107
1779,16803804,-460,-1086,-777,4359,5955,-4345
1780,16803814,-371,-812,-353,4328,6380,-4554
1781,16803824,-281,-556,108,4248,6692,-4634
1782,16803834,-235,-235,521,4094,6836,-4412
1783,16803844,-207,69,1045,4220,6759,-3828
1784,16803854,-246,423,1918,4564,6366,-2755
1785,16803864,-124,963,3300,4533,6089,-1767
1786,16803874,288,1501,5448,4325,6203,-921
1787,16803884,773,1204,7538,3801,6081,-131
1788,16803894,1082,975,8525,2730,4895,40
1789,16803904,264,1057,8375,1776,1114,1801
1790,16803914,-740,1330,7795,773,-4211,4798
1791,16803924,-1959,1078,7214,1041,-8512,8119
1792,16803934,-2216,1109,6519,2032,-11296,8902
1793,16803944,-2481,1322,6247,3120,-13203,8964
1794,16803941,-2481,1322,6247,3121,-13204,9081
1795,16803951,-3106,1156,5992,3902,-14894,9745
1796,16803961,-3944,798,5568,3865,-16062,10236
1797,16803971,-4864,467,4969,3333,-16715,10348
1798,16803981,-5986,-131,4305,2235,-16965,10287
1799,16803991,-7099,-1120,3328,506,-16709,10232
1800,16804001,-8173,-2701,2287,-1537,-16352,9819
1801,16804011,-8679,-3551,1309,-3633,-16307,8974
1802,16804021,-8819,-3859,-814,-5773,-16110,6909
1803,16804031,-9346,-3901,-4753,-9333,-16002,4775
1804,16804041,-9427,-3240,-7687,-12516,-15835,3101
1805,16804051,-7833,-1485,-8470,-11204,-11645,-1222
1806,16804061,-8022,-1599,-8452,-6157,-5971,-1745
1807,16804071,-7426,-2143,-6540,-62,707,-999
1808,16804081,-6534,-2910,-4875,3941,3699,-823
1809,16804091,-5759,-3013,-4133,4033,4613,-1486
1810,16804101,-5316,-2721,-3753,2995,5522,-2613
1811,16804111,-4951,-2081,-3268,2034,7111,-4268
1812,16804121,-4552,-1293,-2409,1759,9097,-5740
1813,16804131,-4099,-509,-1248,2039,10979,-6638
1814,16804141,-3718,223,-132,2298,12430,-7023
1815,16804151,-3274,706,519,2536,13024,-7069
1816,16804161,-2955,989,984,2573,12819,-6775
1817,16804171,-2800,1056,1510,2467,12355,-6185
1818,16804181,-2821,1481,2425,2089,12404,-5727
1819,16804191,-2937,1824,3635,1847,13165,-5378
1820,16804188,-2937,1824,3635,1848,13165,-5367
1821,16804198,-2635,2687,5750,1542,14433,-4779
1822,16804208,-1540,3365,8291,786,16014,-4179
1823,16804218,172,2794,10986,-805,17724,-2794
1824,16804228,180,420,12544,-2553,18440,289
1825,16804238,-3443,49,12265,-830,14508,1369
1826,16804248,-1818,-396,12119,517,8172,-872
1827,16804258,-2229,944,10876,-165,-1247,529
1828,16804268,-2064,2097,8931,-1292,-8299,3962
1829,16804278,-2171,2247,6935,-486,-11687,5665
1830,16804288,-2702,1948,5532,99,-13539,7111
1831,16804298,-3231,1629,4611,739,-14656,8036
1832,16804308,-3937,1073,4064,1276,-14798,8635
1833,16804318,-4750,635,3655,1170,-14229,8900
1834,16804328,-5826,13,3244,613,-13476,8967
1835,16804338,-7313,-1670,2459,-561,-12973,9317
1836,16804348,-8219,-2973,1663,-2571,-13130,9428
1837,16804358,-8971,-3908,767,-4691,-13866,8762
1838,16804368,-8952,-3945,-2166,-7031,-14144,6681
1839,16804378,-9074,-4547,-6859,-9865,-15083,4043
1840,16804388,-9396,-4758,-9641,-10459,-16558,1784
1841,16804398,-7892,-3884,-10708,-8049,-9860,-2204
1842,16804408,-7201,-2811,-9348,-5126,-1521,-2789
1843,16804418,-6035,-3317,-6115,1455,5477,-2003
1844,16804428,-4994,-3027,-4379,3548,7791,-2547
1845,16804438,-4497,-2734,-3591,3275,8235,-3073
1846,16804435,-4497,-2734,-3590,3276,8235,-3047
1847,16804445,-4238,-2351,-2936,2899,9261,-3891
1848,16804455,-3983,-1715,-2161,2412,10371,-5244
1849,16804465,-3771,-1012,-1185,2158,11363,-6205
1850,16804475,-3519,-356,-138,1809,12196,-6789
1851,16804485,-3223,252,817,937,12835,-6998
1852,16804495,-3069,740,1490,-218,13369,-6566
1853,16804505,-3223,881,2525,-1050,13589,-5408
1854,16804515,-3728,1394,4200,-1920,14122,-3940
1855,16804525,-3486,2083,7025,-3127,15484,-2494
1856,16804535,-2454,1414,9667,-3952,18481,-422
1857,16804545,-1803,-2611,12454,-3859,20715,1918
1858,16804555,-5124,-3291,13003,-3631,20240,2265
1859,16804565,-1380,-2788,11023,-1838,13749,-6165
1860,16804575,-1299,-1160,9756,-2572,2852,-5274
1861,16804585,-2102,-943,9337,-1649,-6926,1263
1862,16804595,-1804,1147,6996,-826,-12441,3118
1863,16804605,-1710,1288,5612,1469,-15673,3206
1864,16804615,-2488,769,4860,3275,-17509,5117
1865,16804625,-3453,272,4509,4539,-18530,6120
1866,16804635,-4520,-214,4192,5170,-18260,6595
1867,16804645,-6003,-910,3776,4337,-17054,7124
1868,16804655,-7621,-2292,2896,2668,-16053,7574
1869,16804665,-8580,-3431,1898,-72,-15670,7590
1870,16804675,-8836,-3395,609,-3188,-16230,7020
1871,16804685,-8894,-4683,-3484,-6319,-16559,4866
1872,16804682,-8894,-4683,-3483,-6318,-16560,4869
1873,16804692,-8955,-5247,-8871,-10876,-17578,2012
1874,16804702,-7297,-3355,-9553,-12457,-15640,-2328
1875,16804712,-8226,-900,-11125,-12387,-10996,-3516
1876,16804722,-6887,-1049,-8010,-5008,-2004,-389
1877,16804732,-5740,-1537,-5503,1263,6747,-222
1878,16804742,-4892,-1906,-3871,4118,10349,-242
1879,16804752,-4058,-1979,-3012,4538,10462,-1403
1880,16804762,-3626,-1951,-2527,3792,9915,-2412
1881,16804772,-3487,-1557,-1994,2995,9961,-2983
1882,16804782,-3188,-953,-1217,2602,10682,-3939
1883,16804792,-2754,-307,-193,2311,11374,-4741
1884,16804802,-2320,206,557,1584,11610,-4819
1885,16804812,-2094,587,1099,587,11518,-4239
1886,16804822,-2004,558,1633,-208,11524,-3384
1887,16804832,-2230,868,2282,-1067,11818,-1994
1888,16804842,-2244,1003,4445,-1130,12741,-851
1889,16804852,-998,1192,8029,-1029,14795,64
1890,16804862,418,51,10204,-1556,17303,1805
1891,16804872,-587,-2135,10890,-2931,18289,4470
1892,16804882,-3694,-3343,10941,-2901,15049,5747
1893,16804892,-2852,-4527,10690,-356,8096,1419
1894,16804902,-2142,-3185,9584,-638,172,-438
1895,16804912,-1968,-1660,8381,-737,-7099,1239
1896,16804922,-1880,-771,6909,1,-11882,1895
1897,16804932,-1999,58,5541,30,-14806,2305
1898,16804928,-1999,58,5542,30,-14806,2451
1899,16804938,-2487,197,4458,518,-16562,2975
1900,16804948,-3307,-208,3728,1112,-17076,3681
1901,16804958,-4102,-710,3424,1668,-16532,4159
1902,16804968,-5290,-1565,2730,1370,-15418,4541
1903,16804978,-6188,-2301,1786,-171,-14599,5039
1904,16804988,-6818,-3054,1063,-1997,-14355,4912
1905,16804998,-7230,-3296,-514,-4416,-14123,4231
1906,16805008,-7305,-2532,-3589,-7492,-13062,2456
1907,16805018,-7004,-2143,-7478,-9935,-11688,562
1908,16805028,-6679,-1580,-9093,-8993,-10114,-960
1909,16805038,-6303,-1867,-8831,-4705,-4573,-878
1910,16805048,-5563,-2362,-6987,240,2468,-343
1911,16805058,-4441,-2354,-5458,2011,5683,-1319
1912,16805068,-3950,-2546,-4909,1830,6261,-1498
1913,16805078,-3669,-2410,-4734,1092,6621,-1615
1914,16805088,-3394,-1841,-4420,157,7520,-2431
1915,16805098,-3191,-1328,-3674,52,9270,-3355
1916,16805108,-2955,-851,-2452,134,11323,-4010
1917,16805118,-2565,-375,-1128,-114,12995,-4144
1918,16805128,-2215,-115,-175,-1075,13882,-3497
1919,16805138,-2030,71,585,-2433,14198,-2425
1920,16805148,-1933,-15,1187,-3351,14269,-1309
1921,16805158,-1734,182,2127,-4562,14434,-31
1922,16805168,-1401,108,3414,-5507,14699,1360
1923,16805178,-1116,329,4423,-6650,14966,2817
1924,16805175,-1116,329,4423,-6650,14965,2839
1925,16805185,-753,-37,5627,-7075,15017,4654
1926,16805195,-932,-1497,6277,-6728,14173,6335
1927,16805205,-1885,-3759,8136,-6299,11656,7850
1928,16805215,-4093,-4950,8000,-5960,8217,7742
1929,16805225,-5307,-6106,6868,-5005,3018,5476
1930,16805235,-5689,-5528,6051,-5127,-3896,3821
1931,16805245,-6059,-4818,4963,-5129,-9866,3325
1932,16805255,-5947,-4390,4288,-4684,-13635,2339
1933,16805265,-5606,-3487,3401,-4833,-15173,602
1934,16805275,-5689,-2657,2200,-5345,-15631,-1380
1935,16805285,-6050,-2309,1415,-4143,-15870,-3223
1936,16805295,-6183,-1631,611,-3597,-15858,-5090
1937,16805305,-6605,-1174,58,-2676,-15678,-6502
1938,16805315,-7283,-707,-535,-1796,-15688,-7339
1939,16805325,-7862,-405,-1193,-281,-16173,-7720
1940,16805335,-8309,-442,-2600,553,-16995,-7360
1941,16805345,-8808,-1107,-4343,725,-17764,-6296
1942,16805355,-9271,-2157,-6670,142,-17294,-4874
1943,16805365,-9164,-2454,-8527,-105,-14736,-4329
1944,16805375,-8601,-2621,-9468,-14,-9536,-4776
1945,16805385,-7416,-1886,-8369,448,-2563,-5646
1946,16805395,-6098,-809,-6584,689,2970,-6479
1947,16805405,-4980,-293,-5114,1020,6348,-6105
1948,16805415,-4230,-175,-4200,1181,8069,-5306
1949,16805425,-3720,-229,-3264,1321,9067,-4866
1950,16805421,-3719,-230,-3263,1321,9067,-4767
1951,16805431,-3425,-55,-2627,1344,10033,-4637
1952,16805441,-3189,128,-2024,1424,11026,-4779
1953,16805451,-2887,552,-1167,1528,11962,-4797
1954,16805461,-2718,731,-276,1461,12756,-4540
1955,16805471,-2580,842,882,1235,13450,-3969
1956,16805481,-2780,669,2088,630,14195,-3040
1957,16805491,-3570,912,3372,-433,14953,-1600
1958,16805501,-4037,808,6649,-1203,16081,-28
1959,16805511,-3129,357,9724,-3193,18577,1777
1960,16805521,-2320,-3530,12527,-5175,21353,5089
1961,16805531,-3017,-4597,11716,-7336,21554,7016
1962,16805541,-4421,-6656,9683,-6519,15745,3007
1963,16805551,-3611,-5861,7520,-7699,7906,-1809
1964,16805561,-2960,-4341,7250,-5632,-403,-1879
1965,16805571,-2500,-2884,6565,-1801,-7099,-2099
1966,16805581,-2551,-1749,4936,-643,-11112,-1773
1967,16805591,-2820,-1202,3737,265,-14034,-937
1968,16805601,-3101,-646,2980,1092,-16636,-280
1969,16805611,-3565,-707,2739,2233,-18114,79
1970,16805621,-4427,-1055,2835,2793,-18364,337
1971,16805631,-5751,-1182,2805,1956,-17784,745
1972,16805641,-7395,-1793,2184,544,-17113,858
1973,16805651,-8195,-1235,392,-1824,-17017,620
1974,16805661,-8791,-1566,-3104,-3947,-17076,-317
1975,16805671,-8148,-2639,-7365,-4397,-17019,-1537
1976,16805668,-8148,-2639,-7365,-4397,-17019,-1451
1977,16805678,-7792,-3248,-9860,-3580,-16236,-1800
1978,16805688,-7117,-3019,-10360,-2256,-12415,-1546
1979,16805698,-6482,-2960,-8608,744,-5956,-2429
1980,16805708,-5296,-2441,-6250,2225,581,-3314
1981,16805718,-4359,-1342,-5014,538,4537,-3721
1982,16805728,-3710,-758,-4640,-558,6260,-2925
1983,16805738,-3326,-694,-4078,-236,7050,-1960
1984,16805748,-2921,-748,-3427,594,8068,-1622
1985,16805758,-2622,-674,-2802,1139,9149,-1797
1986,16805768,-2248,-233,-2168,1137,10090,-2145
1987,16805778,-2096,21,-1515,1100,10964,-2086
1988,16805788,-2090,37,-497,1132,11968,-1729
1989,16805798,-2124,-29,731,506,13084,-958
1990,16805808,-2211,-191,1782,-754,14129,353
1991,16805818,-2605,-509,2765,-2039,14901,2026
1992,16805828,-2995,-741,4097,-3369,15722,3901
1993,16805838,-3289,-1161,5251,-5075,16879,6128
1994,16805848,-3690,-3309,6803,-6059,18016,8336
1995,16805858,-4212,-6026,7507,-7585,18627,9551
1996,16805868,-5503,-7167,7531,-8340,17315,7577
1997,16805878,-4079,-7762,6429,-7031,13074,1297
1998,16805888,-4453,-7265,4038,-7798,5674,-2999
1999,16805898,-4117,-4951,3479,-5136,-5028,-3563
2000,16805908,-4703,-3503,2244,-2878,-11136,-3154
2001,16805918,-4203,-3300,1896,-1133,-14032,-3073
2002,16805915,-4203,-3300,1897,-1132,-14032,-2931
2003,16805925,-4094,-2782,1869,1916,-15674,-3634
2004,16805935,-3950,-2045,1772,2771,-16513,-4684
2005,16805945,-4353,-1541,1814,3325,-16647,-5247
2006,16805955,-5622,-1026,1344,2295,-16656,-5368
2007,16805965,-6687,-460,461,741,-17021,-5630
2008,16805975,-7660,-155,-432,39,-17748,-5892
2009,16805985,-8343,-724,-2832,-828,-18104,-5660
2010,16805995,-7956,-1105,-5867,-2180,-17977,-5523
2011,16806005,-7555,-1625,-8348,-2343,-16890,-4495
2012,16806015,-7340,-2106,-9257,-506,-14661,-3907
2013,16806025,-6770,-2505,-8995,1718,-10152,-3877
2014,16806035,-5772,-2078,-7838,2339,-4082,-4738
2015,16806045,-4718,-833,-6507,1384,1506,-6000
2016,16806055,-3846,123,-5391,551,4648,-5704
2017,16806065,-3153,273,-4403,444,6251,-4242
2018,16806075,-2799,124,-3627,434,7531,-2973
2019,16806085,-2539,-116,-3094,347,9218,-2214
2020,16806095,-2367,-121,-2569,-93,11065,-1675
2021,16806105,-2430,-191,-1731,-371,12991,-1043
2022,16806115,-2703,-435,-547,-685,14695,-110
2023,16806125,-3115,-711,821,-1474,16281,1269
2024,16806135,-3641,-1079,2160,-2470,17711,2808
2025,16806145,-4250,-1531,3337,-3392,19097,4372
2026,16806155,-4893,-2240,4339,-4660,20019,6019
2027,16806165,-5058,-3287,5315,-6422,20684,7427
2028,16806161,-5058,-3287,5316,-6421,20684,7622
2029,16806171,-5184,-6498,6318,-7113,20819,8307
2030,16806181,-4419,-7949,7306,-7574,19349,6342
2031,16806191,-4155,-8133,7148,-5594,15238,1494
2032,16806201,-2709,-5630,4940,-6370,8245,-4717
2033,16806211,-2351,-3461,2863,-4820,-769,-6008
2034,16806221,-2719,-3309,2392,-1395,-8237,-2953
2035,16806231,-3491,-3478,2590,3402,-13447,-765
2036,16806241,-3041,-2949,2833,5740,-15867,-1810
2037,16806251,-2514,-2912,3405,8009,-16689,-2848
2038,16806261,-2959,-2900,3878,8553,-17159,-2676
2039,16806271,-4186,-2334,3526,6918,-17453,-2019
2040,16806281,-5487,-1688,2765,4674,-18144,-2301
2041,16806291,-6824,-1043,1878,1758,-18846,-2442
2042,16806301,-8058,-769,545,-824,-18850,-2370
2043,16806311,-8244,-167,-1810,-3127,-18257,-3051
2044,16806321,-7912,-1420,-5364,-3731,-17754,-2977
2045,16806331,-7262,-1943,-8592,-4222,-17384,-2446
2046,16806341,-7387,-1771,-11145,-3629,-15878,-1604
2047,16806351,-6977,-2653,-10434,1124,-10102,-1822
2048,16806361,-5824,-2794,-7313,4573,-2070,-2676
2049,16806371,-4596,-1589,-5365,2859,3534,-4399
2050,16806381,-4048,-854,-4794,308,5616,-3684
2051,16806391,-3658,-481,-4404,-749,5968,-2340
2052,16806401,-3455,-547,-4125,-434,6738,-1624
2053,16806411,-3310,-656,-3527,665,8642,-1793
2054,16806408,-3310,-656,-3526,666,8641,-1572
2055,16806418,-3185,-709,-2549,2095,10649,-1968
2056,16806428,-2920,-323,-1558,2597,11790,-2543
2057,16806438,-2765,-104,-514,2903,12362,-2700
2058,16806448,-2609,130,530,2439,12732,-2586
2059,16806458,-2664,184,1547,1501,13332,-1889
2060,16806468,-3034,11,2442,608,14221,-699
2061,16806478,-4092,-258,3761,-372,15205,1040
2062,16806488,-5054,-882,5837,-1300,16783,3077
2063,16806498,-5390,-3365,8543,-2491,18939,5129
2064,16806508,-4944,-6772,10029,-4657,21556,6791
2065,16806518,-5718,-7772,10036,-5934,21890,4669
2066,16806528,-2926,-7047,7274,-6074,16701,-4115
2067,16806538,-2668,-5368,4128,-9706,9213,-7578
2068,16806548,-1734,-3879,3772,-6882,-281,-5526
2069,16806558,-1896,-2842,2559,-3359,-6820,-4233
2070,16806568,-1477,-1587,1901,-2055,-11013,-2543
2071,16806578,-1499,-1378,1948,2135,-13165,-2240
2072,16806588,-846,-1185,2364,6218,-15337,-3114
2073,16806598,-449,-1454,3356,8668,-16729,-3572
2074,16806608,-1174,-1894,3988,9488,-16981,-2545
2075,16806618,-2611,-1671,3798,8292,-16473,-636
2076,16806628,-3952,-1249,3418,6733,-16356,75
2077,16806638,-5461,-1175,2812,4455,-16526,221
2078,16806648,-7115,-1664,1916,1645,-16573,1325
2079,16806658,-8127,-1705,649,-1488,-16407,1281
