sequence,timestamp_ms,accel_x,accel_y,accel_z,gyro_x,gyro_y,gyro_z
14430,19079882,-4421,-4208,-15276,-4952,-11484,-260
14431,19079892,-4421,-4699,-12649,993,-4491,-1430
14432,19079902,-3708,-3297,-7902,5436,5545,-3016
14433,19079912,-3281,-1151,-4722,4591,9386,-5033
14434,19079922,-2831,242,-3701,3085,9624,-5537
14435,19079932,-3052,607,-2908,3209,9514,-4703
14436,19079942,-3407,510,-2012,3760,10416,-3914
14437,19079952,-4232,173,-908,3231,11773,-3320
14438,19079962,-5243,744,755,1993,13098,-2679
14439,19079972,-6690,1914,3692,668,14248,-1473
14440,19079982,-6358,781,9753,-691,15612,-407
14441,19079992,-3758,-680,12819,-3389,17936,529
14442,19080002,-3149,-2834,12149,-5547,15021,449
14443,19080012,-4602,-3512,9371,-7120,6295,1609
14444,19080022,-4868,-3404,5958,-7785,-1180,2485
14445,19080032,-5793,-4248,5253,-2299,-7085,2801
14446,19080042,-5444,-3378,5314,3544,-11094,1375
14447,19080052,-5289,-1896,3829,3481,-13458,-115
14448,19080062,-5411,-939,2430,1946,-15035,-320
14449,19080072,-5571,-249,1195,531,-15763,-212
14450,19080082,-5920,248,165,-221,-15825,53
14451,19080092,-6184,848,-585,-627,-15457,451
14452,19080102,-6411,593,-1710,-133,-14927,882
14453,19080112,-6358,-1322,-4119,15,-14856,1533
14454,19080122,-5721,-3070,-9404,-2552,-14488,2244
14455,19080132,-6316,-5083,-13515,-3650,-13749,2817
14456,19080129,-6316,-5083,-13514,-3649,-13749,2855
14457,19080139,-6499,-5256,-13121,-925,-8834,707
14458,19080149,-5756,-4369,-8929,3190,1000,-2678
14459,19080159,-4414,-1914,-5528,4052,8055,-5582
14460,19080169,-3583,70,-3947,2661,10263,-7064
14461,19080179,-3358,980,-3178,2067,10179,-6739
14462,19080189,-3754,1053,-1991,3472,10432,-5585
14463,19080199,-4747,209,-841,4368,11419,-4527
14464,19080209,-5862,1147,632,3318,12998,-3716
14465,19080219,-7019,1286,2022,3006,14698,-2869
14466,19080229,-8398,1925,5494,2298,16576,-953
14467,19080239,-6766,1348,11668,1225,18631,-619
14468,19080249,-3314,-1121,14534,443,21842,-1525
14469,19080259,-2353,-2492,12784,-3020,19054,-2875
14470,19080269,-3273,-2473,10111,-4993,8146,-2066
14471,19080279,-3734,-1694,6016,-8794,-2436,1875
14472,19080289,-5519,-2091,4402,-5167,-8817,3317
14473,19080299,-4835,-2149,4156,2162,-12718,2652
14474,19080309,-5026,-1407,3156,3633,-14226,1492
14475,19080319,-5300,-980,2075,2861,-14945,1508
14476,19080329,-5716,-361,1017,1012,-15307,1805
14477,19080339,-5911,328,116,-773,-15091,1939
14478,19080349,-6321,-1036,-878,-1581,-14373,1959
14479,19080359,-5559,-2335,-3034,-3133,-13673,1815
14480,19080369,-5197,-2802,-6310,-6884,-14434,1549
14481,19080379,-5834,-3184,-8995,-8728,-15571,1537
14482,19080376,-5833,-3184,-8994,-8728,-15572,1683
14483,19080386,-5615,-3141,-9018,-6694,-13170,-204
14484,19080396,-5369,-2002,-7848,-5310,-6726,-2399
14485,19080406,-4343,-1223,-5296,-1138,2348,-2191
14486,19080416,-3399,-631,-3239,1032,9228,-2113
14487,19080426,-3044,-769,-1353,3579,11686,-1474
14488,19080436,-2928,-968,-139,4454,11821,-1410
14489,19080446,-2958,-1153,923,4227,11646,-1245
14490,19080456,-3121,-1119,1691,4093,11590,-1010
14491,19080466,-2944,-990,2426,4533,11613,-1375
14492,19080476,-2577,-863,2912,5410,11028,-2251
14493,19080486,-2236,-606,2886,5572,9668,-2972
14494,19080496,-1912,-679,3172,5762,7967,-3226
14495,19080506,-1469,-1098,3706,6285,6344,-3326
14496,19080516,-959,-1495,4111,6432,4799,-3557
14497,19080526,-672,-1567,4109,5925,3211,-3821
14498,19080536,-410,-1543,3907,5170,1715,-3967
14499,19080546,-147,-1509,3588,4239,649,-3829
14500,19080556,-34,-1469,3178,3108,-206,-3344
14501,19080566,-87,-1462,2710,1823,-908,-2806
14502,19080576,-138,-1418,2237,627,-1235,-2391
14503,19080586,-168,-1407,1781,-228,-1244,-2190
14504,19080596,-256,-1449,1365,-679,-1034,-2102
14505,19080606,-341,-1550,1075,-769,-601,-2122
14506,19080616,-294,-1679,1015,-657,-133,-2080
14507,19080626,-199,-1839,1067,-646,98,-2305
14508,19080622,-198,-1839,1067,-645,97,-2062
14509,19080632,-180,-1951,1068,-941,136,-2026
14510,19080642,-171,-2018,891,-1337,64,-2038
14511,19080652,-154,-2006,618,-1611,137,-2207
14512,19080662,-148,-2026,539,-1507,503,-2542
14513,19080672,-51,-1977,672,-1343,820,-2972
14514,19080682,119,-1905,739,-1308,848,-3343
14515,19080692,291,-1766,718,-1490,632,-3570
14516,19080702,407,-1605,636,-1652,353,-3671
14517,19080712,464,-1524,505,-1661,66,-3656
14518,19080722,542,-1420,305,-1557,-162,-3536
14519,19080732,568,-1372,159,-1158,-312,-3393
14520,19080742,673,-1409,149,-561,-265,-3388
14521,19080752,890,-1267,105,-160,-362,-3388
14522,19080762,971,-1223,-12,226,-646,-3248
14523,19080772,1086,-1198,-55,654,-874,-3005
14524,19080782,1141,-1123,-100,903,-1138,-2791
14525,19080792,1271,-896,-202,980,-1441,-2575
14526,19080802,1248,-793,-281,1228,-1667,-2197
14527,19080812,1162,-866,-197,1591,-1651,-1636
14528,19080822,1180,-1001,-56,1658,-1412,-1159
14529,19080832,1153,-1218,64,1470,-1289,-658
14530,19080842,1017,-1453,46,1132,-1268,-235
14531,19080852,827,-1711,-94,804,-1293,55
14532,19080862,706,-1917,-276,681,-1293,147
14533,19080872,591,-2027,-376,707,-1263,0
14534,19080869,591,-2028,-376,708,-1263,47
14535,19080879,609,-2035,-388,839,-1112,-276
14536,19080889,689,-1979,-344,832,-1040,-544
14537,19080899,766,-1798,-329,693,-1077,-718
14538,19080909,840,-1610,-301,644,-1119,-825
14539,19080919,929,-1410,-240,669,-1135,-773
14540,19080929,1004,-1246,-201,722,-1179,-584
14541,19080939,986,-1164,-166,908,-1209,-302
14542,19080949,943,-1191,-136,1122,-1107,-89
14543,19080959,909,-1261,-153,1228,-1030,131
14544,19080969,814,-1382,-280,1256,-1087,377
14545,19080979,660,-1487,-350,1354,-1237,526
14546,19080989,607,-1602,-416,1604,-1236,480
14547,19080999,637,-1676,-419,1785,-1144,335
14548,19081009,679,-1612,-416,1756,-1110,177
14549,19081019,704,-1550,-431,1560,-1166,66
14550,19081029,707,-1496,-460,1298,-1223,24
14551,19081039,692,-1532,-515,974,-1169,101
14552,19081049,619,-1597,-556,572,-953,258
14553,19081059,558,-1683,-584,215,-687,311
14554,19081069,482,-1936,-685,-105,-531,367
14555,19081079,385,-2134,-900,-324,-563,513
14556,19081089,266,-2317,-1021,-87,-762,583
14557,19081099,265,-2381,-992,335,-885,370
14558,19081109,360,-2202,-897,553,-930,-92
14559,19081119,409,-1982,-735,673,-863,-512
14560,19081116,410,-1982,-735,674,-864,-469
14561,19081126,468,-1812,-531,750,-775,-630
14562,19081136,522,-1736,-432,647,-753,-566
14563,19081146,488,-1801,-417,417,-772,-394
14564,19081156,387,-1895,-536,88,-811,-268
14565,19081166,365,-1997,-687,-171,-862,-281
14566,19081176,395,-1979,-879,-280,-909,-375
14567,19081186,411,-1955,-956,-34,-1020,-453
14568,19081196,499,-1870,-994,350,-1065,-549
14569,19081206,621,-1771,-1014,642,-1123,-519
14570,19081216,656,-1720,-994,928,-1208,-445
14571,19081226,669,-1674,-939,1128,-1250,-465
14572,19081236,723,-1633,-943,1164,-1238,-481
14573,19081246,758,-1650,-995,1085,-1197,-449
14574,19081256,739,-1688,-1081,943,-1150,-415
14575,19081266,766,-1690,-1157,880,-1069,-446
14576,19081276,863,-1681,-1226,943,-952,-492
14577,19081286,825,-1750,-1230,1088,-875,-371
14578,19081296,852,-1760,-1224,1135,-854,-231
14579,19081306,847,-1812,-1249,1072,-848,-131
14580,19081316,818,-1857,-1218,920,-788,-48
14581,19081326,738,-1825,-1175,797,-650,-175
14582,19081336,750,-1760,-1087,709,-531,-294
14583,19081346,713,-1755,-982,736,-458,-293
14584,19081356,705,-1730,-937,669,-416,-303
14585,19081366,641,-1713,-922,613,-405,-512
14586,19081362,641,-1713,-922,614,-406,-289
14587,19081372,565,-1730,-855,701,-311,-275
14588,19081382,650,-1721,-699,816,-140,-386
14589,19081392,619,-1723,-598,923,-155,-392
14590,19081402,625,-1685,-550,998,-310,-348
14591,19081412,687,-1661,-605,1034,-516,-380
14592,19081422,637,-1586,-614,1187,-836,-299
14593,19081432,686,-1505,-565,1431,-1044,-376
14594,19081442,801,-1422,-499,1451,-1154,-445
14595,19081452,849,-1379,-506,1293,-1217,-435
14596,19081462,826,-1355,-580,1022,-1254,-421
14597,19081472,823,-1334,-684,802,-1295,-393
14598,19081482,850,-1348,-764,625,-1306,-328
14599,19081492,838,-1385,-865,454,-1304,-221
14600,19081502,815,-1437,-925,306,-1328,-158
14601,19081512,821,-1365,-992,156,-1346,-189
14602,19081522,874,-1365,-1019,129,-1333,-211
14603,19081532,930,-1315,-1070,99,-1281,-261
14604,19081542,945,-1267,-1102,89,-1202,-277
14605,19081552,984,-1294,-1166,156,-999,-251
14606,19081562,981,-1339,-1247,95,-748,-208
14607,19081572,917,-1378,-1320,-64,-611,-76
14608,19081582,963,-1483,-1378,-190,-485,68
14609,19081592,929,-1489,-1490,-374,-380,218
14610,19081602,1011,-1486,-1520,-326,-301,317
14611,19081612,1030,-1483,-1481,-171,-326,256
14612,19081609,1031,-1484,-1481,-170,-327,484
14613,19081619,1133,-1390,-1560,-13,-373,636
14614,19081629,1178,-1320,-1513,297,-460,908
14615,19081639,1203,-1294,-1276,535,-555,1342
14616,19081649,1180,-1366,-1017,773,-636,1796
14617,19081659,1150,-1445,-759,805,-795,2004
14618,19081669,1023,-1488,-682,496,-1108,2036
14619,19081679,836,-2777,-1037,152,-1556,2110
14620,19081689,-83,-1364,-968,-326,-2320,2152
14621,19081699,410,-1881,-1338,-1293,-2328,1109
14622,19081709,282,-1844,-1505,-838,-2337,685
14623,19081719,372,-1732,-1636,-632,-1750,434
14624,19081729,514,-1792,-1447,142,-817,109
14625,19081739,566,-1801,-1239,723,-213,-138
14626,19081749,588,-1860,-1111,831,-165,-267
14627,19081759,535,-1852,-1174,491,-287,-422
14628,19081769,548,-1676,-1222,264,-356,-659
14629,19081779,824,-1305,-973,634,-366,-987
14630,19081789,940,-1331,-942,1401,-192,-1397
14631,19081799,839,-1273,-1034,1577,-305,-1444
14632,19081809,726,-1161,-1179,1478,-490,-1498
14633,19081819,645,-1096,-1244,1416,-570,-1555
14634,19081829,651,-1127,-1150,1597,-466,-1600
14635,19081839,547,-1217,-1077,1778,-280,-1650
14636,19081849,463,-1233,-1096,1636,-215,-1742
14637,19081859,410,-1311,-1166,1479,-269,-1793
14638,19081855,410,-1312,-1166,1479,-269,-1703
14639,19081865,448,-1311,-1255,961,-294,-1702
14640,19081875,370,-1368,-1330,544,-297,-1668
14641,19081885,294,-1429,-1486,122,-328,-1623
14642,19081895,235,-1501,-1786,-336,-510,-1427
14643,19081905,180,-1546,-2120,-587,-784,-1083
14644,19081915,36,-1499,-2455,-453,-953,-671
14645,19081925,85,-1373,-2354,181,-839,-361
14646,19081935,265,-1302,-2041,976,-409,-316
14647,19081945,345,-1232,-1711,1422,-116,-284
14648,19081955,490,-1876,-1468,1788,-88,-290
14649,19081965,75,-1840,-1557,1746,-391,-280
14650,19081975,364,-1411,-1952,437,-215,-883
14651,19081985,252,-1360,-1961,166,-24,-803
14652,19081995,389,-1217,-1880,611,241,-630
14653,19082005,528,-1075,-1952,565,331,-413
14654,19082015,562,-942,-1889,592,390,186
14655,19082025,603,-921,-1625,931,429,893
14656,19082035,585,-923,-1199,1349,288,1445
14657,19082045,757,-950,-567,1859,143,1516
14658,19082055,1030,-1033,-107,2089,20,1140
14659,19082065,1272,-971,-243,1822,-456,738
14660,19082075,1204,-811,-729,1192,-1246,699
14661,19082085,1083,-614,-1168,1044,-1687,935
14662,19082095,955,-2943,-2022,1344,-1638,1290
14663,19082105,124,-1059,-2115,-427,-1108,1024
14664,19082102,125,-1059,-2115,-427,-1109,1138
14665,19082112,460,-1804,-1818,979,-377,658
14666,19082122,513,-1700,-1434,1534,227,338
14667,19082132,539,-1615,-1206,1455,353,280
14668,19082142,509,-1152,-988,1232,308,191
14669,19082152,1146,-1025,-1212,643,846,-113
14670,19082162,683,-1194,-1287,-272,797,329
14671,19082172,603,-1395,-1305,362,768,597
14672,19082182,501,-1308,-1430,319,552,361
14673,19082192,478,-1274,-1567,282,558,108
14674,19082202,434,-1418,-1561,453,558,210
14675,19082212,374,-1452,-1504,737,491,395
14676,19082222,357,-1437,-1433,888,460,282
14677,19082232,404,-1341,-1405,905,508,116
14678,19082242,471,-1322,-1355,931,545,74
14679,19082252,491,-1368,-1319,909,521,122
14680,19082262,460,-1415,-1330,850,419,198
14681,19082272,465,-1352,-1345,805,297,202
14682,19082282,527,-1397,-1357,819,200,157
14683,19082292,554,-1402,-1347,821,174,137
14684,19082302,501,-1449,-1367,922,133,188
14685,19082312,509,-1485,-1415,1061,61,216
14686,19082322,495,-1515,-1473,1055,-44,136
14687,19082332,440,-1484,-1480,1022,-161,72
14688,19082342,494,-1393,-1488,1039,-189,-32
14689,19082352,553,-1365,-1445,1134,-115,-256
14690,19082349,553,-1366,-1445,1134,-115,-74
14691,19082359,572,-1379,-1366,1205,-18,-98
14692,19082369,596,-1354,-1281,1190,-1,-99
14693,19082379,659,-1347,-1259,1112,-17,-112
14694,19082389,660,-1341,-1296,984,-78,-125
14695,19082399,626,-1316,-1363,879,-134,-125
14696,19082409,658,-1261,-1408,794,-131,-105
14697,19082419,679,-1237,-1410,817,-70,-79
14698,19082429,681,-1209,-1388,826,-8,-73
14699,19082439,682,-1249,-1357,785,24,7
14700,19082449,640,-1308,-1405,796,31,117
14701,19082459,541,-1431,-1416,857,-13,218
14702,19082469,482,-1501,-1445,952,-32,196
14703,19082479,484,-1453,-1372,1001,-38,78
14704,19082489,573,-1421,-1338,1067,24,-39
14705,19082499,595,-1422,-1285,1055,63,-147
14706,19082509,602,-1373,-1256,975,32,-160
14707,19082519,656,-1322,-1298,878,-7,-200
14708,19082529,631,-1284,-1363,785,-51,-221
14709,19082539,629,-1237,-1436,757,-81,-203
14710,19082549,665,-1252,-1442,754,-81,-137
14711,19082559,662,-1301,-1406,835,-34,-22
14712,19082569,608,-1309,-1389,890,-15,-13
14713,19082579,648,-1358,-1385,933,-53,-8
14714,19082589,592,-1523,-1458,984,-110,56
14715,19082599,444,-1532,-1502,1023,-246,0
14716,19082596,445,-1533,-1502,1023,-247,190
14717,19082606,457,-1461,-1473,1033,-301,30
14718,19082616,507,-1381,-1485,1177,-252,-170
14719,19082626,626,-1313,-1459,1421,-285,-219
14720,19082636,628,-1279,-1451,1452,-305,-205
14721,19082646,637,-1315,-1423,1497,-310,-68
14722,19082656,637,-1328,-1405,1457,-300,-3
14723,19082666,587,-1407,-1469,1436,-268,11
14724,19082676,487,-1588,-1579,1359,-279,25
14725,19082686,361,-1865,-1817,1271,-281,3
14726,19082696,267,-2339,-1951,1168,-162,-176
14727,19082706,103,-2015,-1778,955,0,-644
14728,19082716,237,-1606,-1615,579,202,-1295
14729,19082726,508,-1429,-1306,697,411,-1742
14730,19082736,545,-1212,-1149,873,421,-1526
14731,19082746,686,-1043,-1035,1043,241,-1290
14732,19082756,803,-978,-1039,1096,2,-1061
14733,19082766,825,-973,-1110,1157,-232,-672
14734,19082776,795,-1014,-1111,1404,-423,-319
14735,19082786,863,-1021,-1111,1554,-495,-184
14736,19082796,946,-1094,-1130,1598,-575,1
14737,19082806,937,-1178,-1100,1666,-700,249
14738,19082816,950,-1228,-1083,1504,-800,305
14739,19082826,979,-1239,-1064,1273,-885,274
14740,19082836,930,-1263,-1124,1210,-954,335
14741,19082846,884,-1282,-1185,1140,-1066,256
14742,19082842,884,-1283,-1185,1140,-1067,399
14743,19082852,843,-1205,-1297,979,-1070,357
14744,19082862,807,-1129,-1351,1039,-1027,489
14745,19082872,818,-1154,-1272,1301,-901,660
14746,19082882,765,-1166,-1228,1472,-796,846
14747,19082892,742,-1245,-1188,1577,-787,1025
14748,19082902,581,-3305,-1651,1666,-868,1135
14749,19082912,195,-1086,-1575,160,-736,788
14750,19082922,390,-1608,-1550,794,-599,287
14751,19082932,504,-1501,-1284,1369,-199,-41
14752,19082942,504,-1495,-1210,1297,-158,4
14753,19082952,501,-1448,-1272,1180,-280,-2
14754,19082962,533,-1471,-1253,1079,-338,13
14755,19082972,547,-1520,-1234,1100,-310,98
14756,19082982,491,-1522,-1278,1044,-345,98
14757,19082992,415,-1528,-1287,1012,-411,72
14758,19083002,434,-1436,-1360,921,-443,16
14759,19083012,443,-1288,-1352,973,-439,-35
14760,19083022,342,-1333,-1358,1051,-435,-58
14761,19083032,499,-1340,-1432,992,-445,-75
14762,19083042,529,-1388,-1336,1033,-387,-132
14763,19083052,507,-1420,-1368,1082,-379,-168
14764,19083062,483,-1462,-1395,1057,-438,-218
14765,19083072,500,-1466,-1382,1137,-399,-284
14766,19083082,466,-1474,-1325,1256,-326,-394
14767,19083092,439,-1513,-1301,1274,-357,-512
14768,19083089,440,-1514,-1301,1274,-358,-430
14769,19083099,375,-1506,-1258,1353,-420,-463
14770,19083109,445,-1477,-1217,1355,-395,-599
14771,19083119,409,-1484,-1157,1301,-348,-590
14772,19083129,461,-1498,-1143,1138,-364,-617
14773,19083139,503,-1530,-1140,1047,-402,-484
14774,19083149,492,-1532,-1164,911,-456,-403
14775,19083159,526,-1447,-1257,892,-441,-440
14776,19083169,529,-1431,-1303,903,-486,-419
14777,19083179,575,-1376,-1304,1087,-543,-424
14778,19083189,568,-1397,-1279,1235,-577,-447
14779,19083199,510,-1398,-1267,1271,-664,-417
14780,19083209,557,-1407,-1289,1315,-686,-471
14781,19083219,526,-1428,-1303,1326,-666,-512
14782,19083229,511,-1476,-1377,1312,-668,-514
14783,19083239,497,-1513,-1384,1295,-677,-463
14784,19083249,506,-1498,-1381,1248,-625,-462
14785,19083259,472,-1516,-1277,1297,-558,-498
14786,19083269,473,-1526,-1236,1329,-530,-527
14787,19083279,509,-1481,-1236,1302,-505,-602
14788,19083289,510,-1501,-1204,1365,-486,-624
14789,19083299,527,-1462,-1189,1364,-520,-654
14790,19083309,562,-1444,-1238,1410,-529,-682
14791,19083319,572,-1450,-1265,1396,-568,-615
14792,19083329,533,-1450,-1245,1396,-593,-608
14793,19083339,554,-1506,-1284,1405,-574,-768
14794,19083335,554,-1506,-1284,1405,-574,-622
14795,19083345,547,-1515,-1309,1288,-627,-496
14796,19083355,512,-1521,-1306,1181,-619,-380
14797,19083365,552,-1477,-1347,1176,-572,-445
14798,19083375,545,-1442,-1316,1171,-546,-398
14799,19083385,534,-1466,-1306,1206,-516,-367
14800,19083395,510,-1465,-1276,1232,-540,-362
14801,19083405,525,-1451,-1252,1323,-554,-392
14802,19083415,548,-1499,-1188,1356,-544,-401
14803,19083425,544,-1483,-1191,1374,-545,-433
14804,19083435,534,-1500,-1238,1302,-549,-443
14805,19083445,534,-1549,-1256,1243,-516,-383
14806,19083455,498,-1552,-1312,1131,-529,-236
14807,19083465,499,-1585,-1275,1096,-471,-239
14808,19083475,500,-1533,-1249,1088,-451,-230
14809,19083485,550,-1471,-1247,1072,-485,-268
14810,19083495,550,-1470,-1224,1122,-483,-296
14811,19083505,550,-1459,-1223,1173,-498,-292
14812,19083515,568,-1480,-1238,1167,-485,-275
14813,19083525,577,-1477,-1229,1153,-464,-257
14814,19083535,496,-1492,-1247,1153,-437,-227
14815,19083545,498,-1534,-1241,1114,-415,-224
14816,19083555,504,-1589,-1238,1082,-357,-202
14817,19083565,500,-1568,-1268,1019,-335,-199
14818,19083575,507,-1555,-1263,1004,-323,-188
14819,19083585,535,-1536,-1273,976,-289,-256
14820,19083582,536,-1537,-1273,977,-290,-166
14821,19083592,572,-1483,-1262,978,-254,-187
14822,19083602,535,-1468,-1300,950,-268,-152
14823,19083612,523,-1497,-1276,945,-257,-107
14824,19083622,567,-1477,-1252,923,-245,-109
14825,19083632,541,-1517,-1224,904,-225,-101
14826,19083642,515,-1495,-1268,869,-237,-126
14827,19083652,539,-1506,-1274,890,-217,-132
14828,19083662,549,-1515,-1241,897,-187,-115
14829,19083672,518,-1532,-1224,905,-190,-68
14830,19083682,512,-1531,-1250,895,-219,-45
14831,19083692,542,-1538,-1183,903,-225,-47
14832,19083702,519,-1498,-1279,912,-232,-97
14833,19083712,527,-1472,-1267,946,-210,-162
14834,19083722,544,-1450,-1273,989,-201,-153
14835,19083732,555,-1457,-1299,991,-201,-156
14836,19083742,517,-1459,-1294,999,-175,-155
14837,19083752,514,-1477,-1281,996,-151,-145
14838,19083762,549,-1487,-1269,974,-110,-130
14839,19083772,525,-1510,-1273,951,-78,-96
14840,19083782,537,-1495,-1204,960,-36,-71
14841,19083792,553,-1581,-1126,941,-22,-38
14842,19083802,519,-1575,-1183,890,-100,41
14843,19083812,519,-1553,-1210,857,-128,-31
14844,19083822,528,-1539,-1207,891,-125,-57
14845,19083832,563,-1474,-1273,861,-156,-256
14846,19083829,564,-1475,-1273,862,-156,-117
14847,19083839,568,-1437,-1331,857,-196,-144
14848,19083849,550,-1417,-1327,916,-189,-148
14849,19083859,563,-1410,-1339,974,-195,-149
14850,19083869,576,-1399,-1348,1000,-198,-138
14851,19083879,543,-1434,-1331,1024,-188,-122
14852,19083889,528,-1474,-1304,1024,-168,-111
14853,19083899,561,-1488,-1269,1009,-128,-112
14854,19083909,535,-1558,-1124,1009,-97,-110
14855,19083919,507,-1620,-1000,1003,-88,-124
14856,19083929,515,-1631,-1007,807,-136,-157
14857,19083939,506,-1661,-1005,664,-178,-140
14858,19083949,507,-1576,-1154,430,-245,-178
14859,19083959,594,-1462,-1256,347,-286,-239
14860,19083969,600,-1333,-1472,385,-390,-160
14861,19083979,609,-1284,-1546,618,-399,-109
14862,19083989,662,-1228,-1559,886,-347,-98
14863,19083999,531,-1278,-1574,936,-339,-51
14864,19084009,661,-1224,-1541,1056,-311,-40
14865,19084019,598,-1333,-1357,1168,-232,8
14866,19084029,552,-1396,-1326,1145,-192,-7
14867,19084039,537,-1511,-1215,1144,-150,-45
14868,19084049,540,-1603,-1107,1140,-112,-124
14869,19084059,492,-1626,-1074,1070,-153,-189
14870,19084069,487,-1601,-1129,905,-207,-224
14871,19084079,540,-1529,-1182,831,-212,-512
14872,19084075,541,-1530,-1182,832,-213,-262
14873,19084085,545,-1455,-1253,812,-196,-351
14874,19084095,582,-1368,-1350,775,-175,-388
14875,19084105,636,-1302,-1436,772,-159,-374
14876,19084115,635,-1317,-1488,810,-134,-295
14877,19084125,596,-1355,-1510,876,-113,-204
14878,19084135,622,-1390,-1498,958,-69,-156
14879,19084145,607,-1403,-1494,1012,0,-160
14880,19084155,562,-1470,-1441,1065,103,-144
14881,19084165,565,-1585,-1451,1291,189,-181
14882,19084175,633,-1640,-1587,1267,254,-270
14883,19084185,673,-1783,-1710,1269,482,-347
14884,19084195,697,-1892,-1826,1229,737,-457
14885,19084205,832,-1915,-1971,1043,1015,-560
14886,19084215,829,-2302,-2251,561,1337,-720
14887,19084225,1237,-744,-1982,261,1736,-1127
14888,19084235,1543,-975,-1585,1659,1746,-835
14889,19084245,1568,-1220,-901,3094,1786,-521
14890,19084255,1529,-1058,-830,2848,1614,-421
14891,19084265,1243,-1301,-764,2673,1562,54
14892,19084275,1224,-1362,-477,2773,1305,332
14893,19084285,1161,-1342,-353,2534,1130,278
14894,19084295,1130,-1239,-320,1950,958,245
14895,19084305,1071,-1103,-267,1412,791,350
14896,19084315,1084,-1072,-204,1032,638,445
14897,19084325,988,-1181,-237,725,325,512
14898,19084322,989,-1182,-236,725,325,635
14899,19084332,838,-1303,-406,428,-30,837
14900,19084342,728,-1464,-584,378,-347,922
14901,19084352,679,-1585,-700,506,-571,913
14902,19084362,589,-1661,-765,721,-731,865
14903,19084372,569,-1637,-819,988,-864,773
14904,19084382,603,-1466,-821,1198,-992,622
14905,19084392,602,-1374,-742,1411,-1069,445
14906,19084402,556,-1280,-715,1435,-1106,330
14907,19084412,483,-1283,-747,1210,-1149,307
14908,19084422,433,-1410,-852,880,-1143,363
14909,19084432,374,-1646,-1043,591,-1137,511
14910,19084442,291,-1791,-1228,490,-1126,637
14911,19084452,299,-1897,-1309,670,-1101,583
14912,19084462,331,-1854,-1295,913,-1057,365
14913,19084472,340,-1767,-1245,1205,-1030,147
14914,19084482,373,-1676,-1222,1525,-1041,5
14915,19084492,383,-1576,-1150,1689,-1023,-127
14916,19084502,367,-1385,-955,1544,-897,-310
14917,19084512,443,-1254,-922,1150,-793,-453
14918,19084522,468,-1181,-1060,647,-844,-349
14919,19084532,402,-1134,-1123,386,-817,-135
14920,19084542,353,-1076,-1044,332,-746,96
14921,19084552,293,-1043,-1010,393,-759,534
14922,19084562,248,-1053,-983,756,-866,1131
14923,19084572,154,-1144,-1020,1122,-987,1537
14924,19084569,154,-1145,-1020,1122,-988,1699
14925,19084579,130,-5691,-2166,1593,-993,2161
14926,19084589,-1114,-3167,-3082,-558,-1209,1841
14927,19084599,-223,-1413,-2524,-1467,-848,-520
14928,19084609,817,-1079,-1177,1367,723,-1922
14929,19084619,477,-1612,-1277,1855,171,139
14930,19084629,172,-1829,-1830,1440,-541,1067
14931,19084639,274,-1628,-1690,1635,-301,533
14932,19084649,230,-1466,-1282,2068,52,351
14933,19084659,249,-3897,-1848,2291,136,426
14934,19084669,164,-2072,-1322,1723,107,312
14935,19084679,-432,-1129,-1475,2001,377,153
14936,19084689,-131,-2560,-1432,768,643,288
14937,19084699,-144,-2329,-1106,846,1194,53
14938,19084709,23,-2073,-1209,504,951,-816
14939,19084719,89,-1869,-1247,400,723,-1234
14940,19084729,99,-1722,-1153,637,730,-1235
14941,19084739,126,-1603,-1013,792,764,-1328
14942,19084749,136,-1462,-863,937,739,-1393
14943,19084759,162,-1365,-688,1180,662,-1389
14944,19084769,300,-1302,-647,1304,585,-1385
14945,19084779,320,-1280,-614,1342,461,-1232
14946,19084789,376,-1237,-573,1431,384,-1088
14947,19084799,507,-1171,-483,1405,320,-1014
14948,19084809,620,-1139,-419,1292,182,-891
14949,19084819,597,-1053,-469,1085,-119,-768
14950,19084815,597,-1054,-469,1086,-120,-686
14951,19084825,693,-934,-560,1111,-445,-528
14952,19084835,774,-1009,-714,1282,-702,-299
14953,19084845,725,-965,-846,1154,-851,30
14954,19084855,734,-1048,-902,1165,-853,225
14955,19084865,779,-1092,-1023,1018,-773,350
14956,19084875,812,-1140,-1071,893,-689,424
14957,19084885,748,-1207,-1078,815,-639,537
14958,19084895,754,-1361,-1199,761,-712,839
14959,19084905,657,-1605,-1356,694,-898,1336
14960,19084915,461,-1833,-1476,693,-989,1719
14961,19084925,683,-2928,-1506,812,-942,1748
14962,19084935,-82,-1511,-1419,1617,-905,1072
14963,19084945,587,-2341,-1771,-391,-765,-141
14964,19084955,505,-2100,-1732,742,-359,-809
14965,19084965,593,-1978,-1513,415,-204,-281
14966,19084975,584,-1886,-1498,438,-149,-117
14967,19084985,682,-1847,-1468,508,-114,-46
14968,19084995,644,-1730,-1302,612,-54,75
14969,19085005,624,-1786,-1287,661,1,277
14970,19085015,513,-1803,-1394,608,-94,446
14971,19085025,449,-1683,-1506,441,-180,567
14972,19085035,446,-1619,-1456,490,4,544
14973,19085045,483,-1658,-1233,478,353,494
14974,19085055,505,-1648,-1016,251,671,465
14975,19085065,635,-1618,-915,-21,803,256
14976,19085062,636,-1619,-915,-21,803,290
14977,19085072,812,-1469,-883,-344,899,-80
14978,19085082,853,-1348,-899,-411,1012,-361
14979,19085092,913,-1265,-826,-277,1073,-640
14980,19085102,982,-1248,-749,44,1041,-847
14981,19085112,971,-1360,-840,161,929,-993
14982,19085122,945,-1412,-916,162,920,-1209
14983,19085132,1064,-1464,-787,364,1071,-1525
14984,19085142,1193,-1286,-545,299,1055,-1769
14985,19085152,1378,-1164,-495,299,846,-1884
14986,19085162,1417,-1165,-489,588,614,-1815
14987,19085172,1336,-1080,-755,665,247,-1528
14988,19085182,1101,-1104,-1025,741,9,-1225
14989,19085192,855,-1198,-1141,1283,-104,-950
14990,19085202,797,-1109,-1239,1790,-318,-838
14991,19085212,751,-1169,-1267,2153,-816,-344
14992,19085222,517,-1355,-1386,2451,-1589,845
14993,19085232,386,-1592,-1512,2358,-2242,1702
14994,19085242,256,-1623,-1746,1859,-2347,2027
14995,19085252,227,-1418,-1740,1281,-1961,2285
14996,19085262,-33,-1433,-1752,1456,-1769,2141
14997,19085272,84,-1311,-2186,-880,-1101,699
14998,19085282,532,-1784,-1906,1192,-374,52
14999,19085292,161,-1634,-1748,928,-79,661
15000,19085302,195,-1606,-1617,808,-120,552
15001,19085312,267,-1448,-1534,780,-8,256
15002,19085309,268,-1449,-1534,781,-8,339
15003,19085319,444,-1406,-1328,932,229,120
15004,19085329,533,-1386,-1111,1027,331,-15
15005,19085339,625,-1372,-1058,928,365,-160
15006,19085349,745,-1344,-1007,828,369,-322
15007,19085359,822,-1343,-947,764,384,-493
15008,19085369,857,-1358,-890,716,347,-572
15009,19085379,994,-1359,-916,609,274,-598
15010,19085389,1099,-1324,-962,422,192,-661
15011,19085399,1100,-1205,-1033,325,179,-693
15012,19085409,1071,-1164,-1060,240,238,-724
15013,19085419,981,-1281,-1084,537,275,-479
15014,19085429,868,-1369,-1173,584,231,-389
15015,19085439,741,-1320,-1296,533,208,-426
15016,19085449,713,-1306,-1316,839,199,-380
15017,19085459,810,-1167,-1353,1167,145,-298
15018,19085469,856,-1019,-1102,1550,-117,178
15019,19085479,842,-1254,-931,2034,-601,960
15020,19085489,786,-1348,-1039,1991,-1036,1338
15021,19085499,730,-1265,-1133,1714,-1089,1323
15022,19085509,660,-1368,-1135,1884,-817,1193
15023,19085519,27,-2573,-1984,1803,-691,1222
15024,19085529,-282,-1571,-1929,-504,-1000,861
15025,19085539,249,-1691,-1507,919,-252,-499
15026,19085549,501,-1516,-1137,1276,135,-505
15027,19085559,614,-1477,-1057,1057,-48,-512
15028,19085555,615,-1478,-1057,1058,-48,-463
15029,19085565,658,-1347,-1115,807,-268,-548
15030,19085575,542,-1064,-995,747,-304,-659
15031,19085585,728,-1414,-1005,1152,-163,-814
15032,19085595,600,-1397,-1045,1086,-238,-803
15033,19085605,533,-1479,-1282,968,-386,-854
15034,19085615,441,-1436,-1472,821,-492,-709
15035,19085625,511,-1467,-1556,899,-458,-591
15036,19085635,537,-1498,-1555,1108,-445,-424
15037,19085645,540,-1421,-1515,1030,-453,-269
15038,19085655,596,-1412,-1487,1104,-395,-210
15039,19085665,668,-1325,-1427,1161,-341,-199
15040,19085675,674,-1350,-1342,1171,-302,-126
15041,19085685,613,-1392,-1343,1149,-288,-38
15042,19085695,612,-1404,-1346,1125,-272,-26
15043,19085705,607,-1436,-1326,1141,-222,-42
15044,19085715,593,-1457,-1293,1132,-164,-49
15045,19085725,575,-1492,-1278,1136,-130,-34
15046,19085735,642,-1472,-1228,1125,-131,-60
15047,19085745,623,-1480,-1209,1128,-128,-85
15048,19085755,623,-1471,-1202,1060,-142,-99
15049,19085765,647,-1432,-1249,1006,-150,-105
15050,19085775,645,-1419,-1271,962,-158,-104
15051,19085785,616,-1420,-1299,925,-163,-103
15052,19085795,635,-1414,-1287,917,-164,-80
15053,19085805,658,-1416,-1279,894,-190,-256
15054,19085802,659,-1417,-1279,894,-191,-41
15055,19085812,575,-1447,-1307,879,-259,32
15056,19085822,551,-1452,-1325,909,-271,43
15057,19085832,612,-1443,-1317,947,-226,-19
15058,19085842,648,-1431,-1267,969,-180,-26
15059,19085852,594,-1414,-1307,961,-193,-29
15060,19085862,599,-1454,-1313,1020,-231,47
15061,19085872,580,-1464,-1321,1045,-233,69
15062,19085882,607,-1463,-1298,1102,-152,-18
15063,19085892,592,-1464,-1258,1130,-134,-41
15064,19085902,620,-1450,-1255,1098,-177,-40
15065,19085912,617,-1441,-1293,1053,-199,-44
15066,19085922,584,-1441,-1305,1071,-208,-26
15067,19085932,602,-1449,-1284,1093,-214,-9
15068,19085942,628,-1438,-1282,1087,-209,-10
15069,19085952,611,-1435,-1304,1070,-195,-22
15070,19085962,608,-1467,-1259,1109,-210,27
15071,19085972,594,-1450,-1289,1089,-275,76
15072,19085982,591,-1462,-1290,1152,-247,51
15073,19085992,580,-1487,-1219,1208,-165,3
15074,19086002,600,-1472,-1233,1205,-150,-27
15075,19086012,594,-1468,-1250,1144,-150,-35
15076,19086022,559,-1474,-1248,1151,-136,-41
15077,19086032,584,-1464,-1230,1106,-145,-62
15078,19086042,590,-1484,-1249,1111,-199,5
15079,19086052,593,-1487,-1250,1066,-205,-256
15080,19086049,593,-1488,-1249,1067,-205,-11
15081,19086059,577,-1467,-1239,1083,-168,-52
15082,19086069,614,-1459,-1244,1068,-147,-81
15083,19086079,631,-1454,-1261,1043,-148,-78
15084,19086089,587,-1478,-1266,1067,-170,-56
15085,19086099,566,-1475,-1255,1107,-164,-51
15086,19086109,606,-1485,-1230,1140,-126,-65
15087,19086119,602,-1481,-1212,1151,-126,-75
15088,19086129,572,-1494,-1217,1093,-146,-84
15089,19086139,594,-1494,-1239,1070,-160,-62
15090,19086149,632,-1500,-1211,1076,-150,-84
15091,19086159,593,-1501,-1213,1065,-192,-43
15092,19086169,597,-1488,-1233,1021,-222,-47
15093,19086179,606,-1489,-1229,1079,-237,-29
15094,19086189,604,-1486,-1226,1069,-227,-46
15095,19086199,575,-1483,-1247,1058,-198,-65
15096,19086209,582,-1498,-1245,1045,-186,-58
15097,19086219,602,-1479,-1251,1058,-171,-55
15098,19086229,593,-1483,-1232,1100,-149,-45
15099,19086239,645,-1485,-1246,1155,-181,13
15100,19086249,692,-1532,-1160,1230,-311,186
15101,19086259,621,-1528,-1216,1151,-364,246
15102,19086269,554,-1538,-1231,1159,-370,237
15103,19086279,596,-1390,-1248,1150,-344,182
15104,19086289,585,-1540,-1189,1102,-328,197
15105,19086299,481,-1541,-1154,1103,-231,0
15106,19086295,481,-1541,-1154,1104,-232,47
15107,19086305,445,-1520,-1189,992,-214,4
15108,19086315,484,-1519,-1216,913,-194,-59
15109,19086325,428,-1515,-1241,910,-124,-132
15110,19086335,374,-1516,-1262,942,0,-236
15111,19086345,394,-1544,-1356,1067,131,-321
15112,19086355,512,-1577,-1432,1171,318,-464
15113,19086365,575,-1713,-1435,1448,559,-576
15114,19086375,718,-1831,-1445,1550,668,-688
15115,19086385,880,-1720,-1515,1341,767,-788
15116,19086395,1081,-1730,-1588,1225,842,-974
15117,19086405,1231,-1871,-1695,1028,980,-987
15118,19086415,1121,-1444,-1521,761,1075,-978
15119,19086425,1468,-1139,-1453,908,1475,-1518
15120,19086435,1496,-1153,-1178,1152,1687,-1342
15121,19086445,1493,-1058,-1088,1573,1826,-1056
15122,19086455,1419,-1115,-839,2087,1866,-692
15123,19086465,1453,-1183,-484,3108,2051,-296
15124,19086475,1408,-1173,-389,2825,1788,-252
15125,19086485,1416,-1093,-344,2361,1480,21
15126,19086495,1316,-1095,-380,1830,1137,411
15127,19086505,1192,-1071,-428,1554,791,719
15128,19086515,1074,-1120,-426,1292,575,784
15129,19086525,965,-1239,-385,1048,507,862
15130,19086535,899,-1334,-358,813,448,868
15131,19086545,845,-1403,-388,514,241,768
15132,19086542,845,-1404,-388,515,241,781
15133,19086552,791,-1465,-436,420,-77,842
15134,19086562,742,-1668,-510,640,-436,977
15135,19086572,731,-1777,-677,737,-795,1007
15136,19086582,606,-1844,-770,931,-1169,1056
15137,19086592,603,-1808,-819,1162,-1347,850
15138,19086602,533,-1730,-787,1300,-1379,539
15139,19086612,491,-1718,-762,1285,-1243,295
15140,19086622,447,-1766,-786,1133,-1179,280
15141,19086632,406,-1947,-900,956,-1126,353
15142,19086642,293,-2041,-1004,799,-1113,462
15143,19086652,245,-2088,-1016,791,-1066,388
15144,19086662,299,-2015,-1015,823,-1017,196
15145,19086672,340,-1913,-1028,936,-1018,69
15146,19086682,296,-1869,-967,1198,-1037,40
15147,19086692,336,-1815,-941,1525,-1051,34
15148,19086702,327,-1808,-931,1682,-1068,30
15149,19086712,289,-1792,-912,1734,-1066,80
15150,19086722,281,-1797,-922,1671,-1019,74
15151,19086732,331,-1765,-964,1503,-964,45
15152,19086742,358,-1723,-1026,1297,-900,-24
15153,19086752,349,-1708,-1018,1157,-797,-54
15154,19086762,417,-1653,-1013,1062,-693,-88
15155,19086772,440,-1635,-1002,1023,-675,-101
15156,19086782,439,-1575,-1058,1035,-708,-71
15157,19086792,449,-1583,-1123,1113,-727,-256
15158,19086789,450,-1584,-1123,1114,-728,-43
15159,19086799,496,-1554,-1138,1155,-670,-7
15160,19086809,496,-1559,-1126,1138,-594,39
15161,19086819,457,-1552,-1133,1048,-493,75
15162,19086829,510,-1554,-1135,978,-380,129
15163,19086839,523,-1551,-1125,959,-305,226
15164,19086849,510,-1617,-1123,987,-253,354
15165,19086859,510,-1569,-1041,1079,-203,482
15166,19086869,578,-2326,-1149,1159,-171,504
15167,19086879,393,-1828,-1223,651,-288,392
15168,19086889,497,-1854,-1169,965,-251,-139
15169,19086899,532,-1771,-1070,1041,-166,-76
15170,19086909,510,-1830,-1028,1113,-188,84
15171,19086919,492,-1822,-992,1141,-185,68
15172,19086929,501,-1832,-937,1147,-134,28
15173,19086939,520,-1840,-901,1131,-84,23
15174,19086949,510,-1792,-867,1060,-53,-1
15175,19086959,505,-1750,-851,971,-24,-25
15176,19086969,513,-1515,-917,925,-35,27
15177,19086979,449,-1739,-904,806,-58,175
15178,19086989,549,-1789,-851,1236,-48,330
15179,19086999,476,-1788,-902,1100,-249,169
15180,19087009,528,-1756,-907,1075,-240,161
15181,19087019,514,-1736,-897,1000,-231,117
15182,19087029,496,-1698,-899,885,-221,48
15183,19087039,508,-1693,-901,821,-215,-256
15184,19087035,509,-1693,-901,822,-215,-5
15185,19087045,522,-1683,-940,825,-214,9
15186,19087055,488,-1685,-942,873,-209,26
15187,19087065,459,-1663,-945,905,-214,69
15188,19087075,477,-1712,-913,974,-213,221
15189,19087085,457,-1815,-875,1082,-212,394
15190,19087095,402,-1880,-870,1089,-258,516
15191,19087105,401,-1822,-857,969,-320,496
15192,19087115,419,-1840,-829,965,-340,425
15193,19087125,382,-1787,-807,778,-369,338
15194,19087135,398,-1763,-825,630,-409,295
15195,19087145,385,-1742,-907,568,-473,293
15196,19087155,381,-1749,-952,570,-453,222
15197,19087165,364,-1734,-962,615,-375,167
15198,19087175,392,-1728,-936,651,-348,172
15199,19087185,387,-1723,-930,662,-345,255
15200,19087195,365,-1743,-933,645,-361,294
15201,19087205,345,-1759,-945,646,-403,351
15202,19087215,334,-1765,-936,619,-443,390
15203,19087225,330,-1797,-938,645,-434,329
15204,19087235,282,-1762,-989,572,-398,201
15205,19087245,296,-1735,-1025,577,-325,77
15206,19087255,333,-1726,-1014,638,-234,-16
15207,19087265,318,-1727,-997,686,-189,-65
15208,19087275,332,-1700,-993,707,-203,-94
15209,19087285,366,-1702,-1007,683,-231,-256
15210,19087282,367,-1703,-1007,683,-231,-119
15211,19087292,358,-1718,-1022,639,-244,-147
15212,19087302,330,-1728,-1054,585,-250,-168
15213,19087312,338,-1712,-1058,537,-261,-188
15214,19087322,354,-1661,-1078,507,-241,-262
15215,19087332,325,-1682,-1062,579,-186,-320
15216,19087342,346,-1677,-1049,582,-145,-361
15217,19087352,394,-1657,-1056,540,-166,-355
15218,19087362,376,-1638,-1138,525,-206,-355
15219,19087372,356,-1662,-1169,566,-206,-379
15220,19087382,369,-1622,-1193,608,-172,-413
15221,19087392,388,-1607,-1202,674,-141,-441
15222,19087402,401,-1616,-1177,829,-94,-467
15223,19087412,369,-1605,-1166,936,-83,-440
15224,19087422,399,-1597,-1150,1011,-94,-424
15225,19087432,410,-1586,-1155,1058,-106,-453
15226,19087442,396,-1605,-1125,1093,-113,-448
15227,19087452,488,-2012,-1031,1192,-114,-438
15228,19087462,389,-1587,-1079,1193,-159,-474
15229,19087472,396,-1521,-1152,786,-223,-871
15230,19087482,442,-1595,-1037,1069,-17,-713
15231,19087492,446,-1648,-1004,1127,12,-434
15232,19087502,455,-1640,-1023,968,-111,-299
15233,19087512,432,-1636,-1054,955,-180,-263
15234,19087522,452,-1636,-1090,1022,-210,-247
15235,19087532,477,-1644,-1110,1109,-229,-256
15236,19087529,478,-1645,-1109,1110,-229,-178
15237,19087539,444,-1650,-1101,1192,-200,-141
15238,19087549,457,-1631,-1074,1226,-170,-138
15239,19087559,494,-1571,-1042,1194,-175,-123
15240,19087569,509,-1434,-967,1154,-180,-64
15241,19087579,467,-1311,-938,1070,-221,196
15242,19087589,506,-1262,-889,1135,-265,518
15243,19087599,611,-2534,-1005,1302,-320,839
15244,19087609,217,-1613,-1152,455,-398,861
15245,19087619,327,-1857,-1113,1039,-474,333
15246,19087629,252,-1442,-1012,968,-381,468
15247,19087639,572,-2866,-1141,1218,-135,153
15248,19087649,176,-1900,-1246,379,-394,804
15249,19087659,335,-1828,-1240,717,-334,-87
15250,19087669,474,-1784,-1122,732,-99,-187
15251,19087679,407,-1752,-1154,739,-244,31
15252,19087689,383,-1717,-1269,669,-352,72
15253,19087699,429,-1627,-1305,733,-327,4
15254,19087709,415,-1585,-1309,779,-262,-66
15255,19087719,389,-1621,-1377,809,-228,-100
15256,19087729,378,-1627,-1419,864,-230,-132
15257,19087739,134,-1663,-1932,954,-208,-189
15258,19087749,626,-1377,-1385,655,-179,-155
15259,19087759,474,-1440,-1219,1358,5,-811
15260,19087769,366,-1635,-1346,1321,-96,-90
15261,19087779,338,-1766,-1485,1076,-178,-512
15262,19087775,338,-1767,-1485,1077,-179,-267
15263,19087785,568,-1690,-1494,932,-4,-469
15264,19087795,397,-1267,-1562,-12,169,-862
15265,19087805,466,-1290,-1512,195,426,-564
15266,19087815,461,-1292,-1574,385,450,-474
15267,19087825,472,-1246,-1628,445,498,-401
15268,19087835,525,-1199,-1619,564,593,-284
15269,19087845,519,-1184,-1578,696,654,-97
15270,19087855,481,-1201,-1518,855,697,97
15271,19087865,489,-1236,-1500,1004,757,283
15272,19087875,531,-1290,-1471,1112,820,406
15273,19087885,455,-1350,-1445,1116,864,527
15274,19087895,424,-1406,-1411,1046,935,628
15275,19087905,444,-1464,-1358,905,1059,638
15276,19087915,419,-1489,-1303,722,1158,621
15277,19087925,415,-1510,-1266,606,1181,618
15278,19087935,428,-1527,-1250,572,1161,616
15279,19087945,400,-1527,-1251,561,1144,625
15280,19087955,400,-1526,-1215,616,1211,579
15281,19087965,397,-1532,-1113,707,1291,514
15282,19087975,458,-1543,-1012,757,1326,521
15283,19087985,429,-1556,-937,751,1319,587
15284,19087995,367,-1632,-846,822,1324,665
15285,19088005,416,-1743,-806,764,1311,632
15286,19088015,410,-1819,-824,576,1208,598
15287,19088025,346,-1832,-825,437,1079,512
15288,19088022,346,-1833,-825,437,1079,577
15289,19088032,386,-1788,-805,441,1001,438
15290,19088042,440,-1716,-791,500,908,329
15291,19088052,448,-1669,-799,622,801,321
15292,19088062,423,-1649,-775,787,682,351
15293,19088072,440,-1686,-802,991,608,374
15294,19088082,453,-1753,-827,1117,506,402
15295,19088092,436,-1854,-885,1185,413,439
15296,19088102,426,-1873,-909,1164,341,441
15297,19088112,479,-1884,-908,1174,302,368
15298,19088122,487,-1872,-885,1181,309,277
15299,19088132,469,-1832,-883,1190,323,200
15300,19088142,508,-1819,-828,1235,387,132
15301,19088152,561,-1757,-776,1203,434,73
15302,19088162,577,-1679,-765,1144,404,25
15303,19088172,599,-1673,-793,1118,356,38
15304,19088182,617,-1668,-816,1100,300,112
15305,19088192,633,-1677,-841,1088,242,163
15306,19088202,617,-1699,-842,1116,204,188
15307,19088212,624,-1708,-813,1199,186,236
15308,19088222,656,-1740,-735,1344,207,293
15309,19088232,630,-1773,-713,1402,171,289
15310,19088242,595,-1782,-677,1431,124,284
15311,19088252,656,-1761,-664,1462,102,217
15312,19088262,643,-1778,-677,1423,66,176
15313,19088272,617,-1800,-709,1370,2,0
15314,19088269,617,-1800,-709,1370,2,151
15315,19088279,612,-1789,-733,1304,-45,142
15316,19088289,624,-1825,-749,1294,-85,130
15317,19088299,588,-1828,-746,1326,-104,102
15318,19088309,615,-1825,-746,1343,-137,50
15319,19088319,620,-1796,-829,1330,-198,19
15320,19088329,613,-1782,-852,1377,-211,-16
15321,19088339,589,-1776,-834,1393,-190,-38
15322,19088349,613,-1777,-822,1371,-170,-22
15323,19088359,629,-1792,-817,1335,-152,-12
15324,19088369,568,-1841,-855,1357,-154,54
15325,19088379,554,-1914,-864,1383,-151,72
15326,19088389,577,-1960,-882,1364,-129,48
15327,19088399,575,-1952,-888,1343,-130,42
15328,19088409,563,-1963,-887,1365,-155,16
15329,19088419,568,-1904,-862,1392,-172,-16
15330,19088429,610,-1849,-813,1408,-169,-40
15331,19088439,573,-1830,-726,1401,-157,-64
15332,19088449,559,-1785,-690,1320,-167,-92
15333,19088459,581,-1718,-678,1174,-186,-142
15334,19088469,564,-1678,-658,1052,-195,-178
15335,19088479,541,-1688,-666,983,-213,-151
15336,19088489,573,-1674,-718,906,-255,-112
15337,19088499,599,-1652,-797,854,-320,-95
15338,19088509,591,-1682,-823,853,-344,-54
15339,19088519,586,-1695,-831,879,-352,-256
15340,19088515,587,-1696,-831,880,-352,-5
15341,19088525,598,-1683,-890,883,-376,30
15342,19088535,592,-1789,-930,926,-353,40
15343,19088545,545,-1820,-977,866,-280,48
15344,19088555,561,-1814,-951,825,-226,24
15345,19088565,590,-1806,-913,941,-131,-32
15346,19088575,572,-1784,-890,1049,-136,-61
15347,19088585,558,-1752,-902,1057,-172,-43
15348,19088595,591,-1772,-895,1145,-177,11
15349,19088605,582,-1819,-863,1212,-137,19
15350,19088615,543,-1837,-846,1210,-123,12
15351,19088625,531,-1855,-838,1189,-139,0
15352,19088635,554,-1831,-797,1148,-116,-51
15353,19088645,521,-1815,-769,1118,-78,-87
15354,19088655,535,-1797,-719,1088,-48,-105
15355,19088665,578,-1767,-696,1057,-51,-109
15356,19088675,566,-1773,-683,1035,-68,-90
15357,19088685,539,-1788,-717,985,-105,-74
15358,19088695,542,-1767,-728,920,-138,-57
15359,19088705,584,-1800,-749,909,-164,-44
15360,19088715,558,-1803,-796,863,-189,-56
15361,19088725,564,-1775,-843,815,-221,-80
15362,19088735,579,-1773,-871,831,-232,-84
15363,19088745,565,-1786,-892,878,-222,-77
15364,19088755,528,-1783,-892,915,-235,-91
15365,19088765,542,-1800,-872,949,-221,-256
15366,19088762,543,-1801,-872,950,-221,-90
15367,19088772,557,-1798,-843,986,-202,-98
15368,19088782,523,-1790,-808,980,-188,-129
15369,19088792,513,-1768,-815,954,-183,-147
15370,19088802,531,-1750,-803,954,-183,-145
15371,19088812,568,-1748,-801,980,-183,-136
15372,19088822,541,-1724,-798,989,-196,-140
15373,19088832,580,-1726,-797,992,-201,-129
15374,19088842,601,-1734,-812,982,-213,-110
15375,19088852,585,-1736,-833,958,-210,-106
15376,19088862,579,-1779,-847,951,-216,-93
15377,19088872,585,-1807,-894,953,-217,-67
15378,19088882,572,-1808,-898,988,-205,-89
15379,19088892,576,-1799,-873,1029,-172,-122
15380,19088902,596,-1754,-852,1049,-164,-129
15381,19088912,608,-1735,-860,1066,-177,-119
15382,19088922,592,-1726,-836,1081,-172,-110
15383,19088932,602,-1710,-810,1088,-162,-92
15384,19088942,615,-1729,-816,1071,-171,-58
15385,19088952,567,-1720,-825,1085,-154,-22
15386,19088962,543,-1801,-797,1104,-113,-36
15387,19088972,540,-1822,-789,1095,-104,-22
15388,19088982,544,-1819,-797,1070,-92,-42
15389,19088992,551,-1844,-761,1068,-71,-65
15390,19089002,539,-1836,-748,1033,-45,-89
15391,19089012,580,-1808,-724,967,-22,-256
15392,19089009,580,-1809,-724,968,-22,-115
15393,19089019,588,-1787,-717,916,-12,-125
15394,19089029,539,-1757,-715,860,-22,-110
15395,19089039,548,-1785,-727,815,-32,-94
15396,19089049,574,-1785,-764,776,-60,-83
15397,19089059,589,-1786,-804,800,-104,-92
15398,19089069,600,-1801,-813,860,-118,-100
15399,19089079,644,-1780,-843,910,-106,-97
15400,19089089,638,-1742,-885,908,-106,-108
15401,19089099,622,-1719,-899,935,-97,-104
15402,19089109,645,-1705,-877,952,-92,-82
15403,19089119,670,-1703,-854,969,-77,-61
15404,19089129,650,-1705,-805,978,-79,-34
15405,19089139,668,-1735,-791,985,-92,0
15406,19089149,685,-1816,-805,1063,-127,69
15407,19089159,659,-1824,-839,1037,-163,46
15408,19089169,603,-1812,-894,1020,-204,25
15409,19089179,588,-1775,-924,1027,-228,4
15410,19089189,576,-1765,-898,1066,-190,29
15411,19089199,561,-1747,-850,1125,-141,29
15412,19089209,545,-1724,-796,1148,-137,32
15413,19089219,574,-1724,-735,1157,-140,60
15414,19089229,567,-1741,-745,1132,-158,66
15415,19089239,557,-1775,-730,1077,-180,67
15416,19089249,566,-1756,-786,1028,-206,76
15417,19089259,590,-1803,-818,979,-224,0
15418,19089255,591,-1804,-818,979,-224,55
15419,19089265,556,-1791,-809,1019,-195,20
15420,19089275,557,-1780,-794,998,-192,15
15421,19089285,571,-1772,-807,968,-218,24
15422,19089295,548,-1801,-788,975,-216,41
15423,19089305,540,-1819,-732,986,-167,3
15424,19089315,541,-1830,-706,1045,-168,7
15425,19089325,588,-1834,-744,1025,-223,-13
15426,19089335,529,-1813,-782,933,-264,-43
15427,19089345,506,-1790,-831,967,-265,-59
15428,19089355,493,-1761,-860,935,-233,-96
15429,19089365,492,-1727,-841,1004,-165,-75
15430,19089375,498,-1758,-796,1140,-152,-56
15431,19089385,545,-1738,-825,1194,-177,-32
15432,19089395,536,-1722,-837,1213,-191,-17
15433,19089405,535,-1787,-840,1336,-152,55
15434,19089415,493,-1880,-803,1473,-88,160
15435,19089425,521,-2148,-814,1482,-41,184
15436,19089435,525,-1967,-741,1235,-45,181
15437,19089445,518,-1852,-708,1364,-4,89
15438,19089455,603,-1809,-680,1228,-54,-1
15439,19089465,599,-1817,-673,1230,-104,13
15440,19089475,587,-1823,-713,1158,-179,2
15441,19089485,569,-1811,-774,1068,-244,4
15442,19089495,600,-1771,-806,1037,-256,-9
15443,19089505,591,-1832,-815,1019,-261,0
15444,19089502,591,-1833,-815,1020,-261,6
15445,19089512,506,-1836,-872,1008,-288,66
15446,19089522,535,-1891,-865,1042,-294,109
15447,19089532,527,-1879,-866,1057,-269,114
15448,19089542,455,-1835,-819,1130,-213,121
15449,19089552,499,-1857,-758,1136,-160,103
15450,19089562,530,-1773,-681,1134,-126,77
15451,19089572,532,-1740,-646,1122,-128,62
15452,19089582,517,-1744,-622,1117,-147,59
15453,19089592,543,-1738,-608,1080,-174,61
15454,19089602,564,-1731,-630,1060,-220,60
15455,19089612,502,-1752,-680,1028,-256,54
15456,19089622,488,-1826,-680,1030,-239,49
15457,19089632,496,-1872,-634,996,-169,9
15458,19089642,472,-1917,-634,1005,-150,-17
15459,19089652,430,-1942,-637,993,-201,-47
15460,19089662,444,-1891,-664,895,-224,-94
15461,19089672,471,-1882,-657,832,-199,-151
15462,19089682,463,-1835,-666,773,-197,-184
15463,19089692,482,-1830,-649,750,-178,-226
15464,19089702,500,-1821,-618,688,-141,-263
15465,19089712,540,-1802,-595,612,-126,-390
15466,19089722,519,-1713,-573,499,-131,-498
15467,19089732,569,-1634,-589,405,-142,-539
15468,19089742,599,-1632,-664,398,-193,-466
15469,19089752,560,-1722,-732,439,-245,-512
15470,19089749,560,-1723,-731,440,-246,-284
15471,19089759,542,-1874,-794,495,-257,-164
15472,19089769,565,-1910,-844,473,-256,-152
15473,19089779,562,-1894,-901,506,-301,-190
15474,19089789,582,-1841,-904,588,-313,-266
15475,19089799,604,-1792,-888,702,-312,-239
15476,19089809,642,-1741,-818,807,-266,-197
15477,19089819,577,-1710,-785,817,-259,-170
15478,19089829,559,-1676,-769,779,-298,-113
15479,19089839,594,-1695,-810,688,-317,-76
15480,19089849,565,-1774,-856,582,-351,4
15481,19089859,548,-1899,-960,513,-391,25
15482,19089869,482,-1825,-981,532,-399,-18
15483,19089879,547,-1812,-986,629,-302,-161
15484,19089889,544,-1755,-933,705,-229,-201
15485,19089899,526,-1735,-910,742,-203,-139
15486,19089909,499,-1753,-930,741,-212,-108
15487,19089919,507,-1741,-886,683,-112,-213
15488,19089929,533,-1728,-840,713,-33,-326
15489,19089939,533,-1704,-835,734,-92,-260
15490,19089949,574,-1781,-838,794,-162,-150
15491,19089959,528,-1773,-861,779,-195,-145
15492,19089969,577,-1772,-858,762,-200,-176
15493,19089979,628,-1745,-890,711,-204,-178
15494,19089989,626,-1717,-898,673,-222,-189
15495,19089999,602,-1691,-950,639,-243,-256
15496,19089995,603,-1692,-950,640,-244,-193
15497,19090005,601,-1673,-962,632,-235,-189
15498,19090015,601,-1699,-1024,654,-229,-170
15499,19090025,566,-1744,-1015,671,-194,-177
15500,19090035,539,-1753,-987,680,-127,-207
15501,19090045,600,-1732,-954,656,-45,-324
15502,19090055,527,-1089,-789,638,-1,-390
15503,19090065,843,-1761,-842,855,42,-493
15504,19090075,551,-1597,-1024,-215,-56,-388
15505,19090085,654,-1654,-1023,304,-14,-222
15506,19090095,620,-1673,-1084,439,-120,-238
15507,19090105,591,-1696,-1080,699,-178,-122
15508,19090115,619,-1669,-1005,907,-199,-38
15509,19090125,637,-1628,-973,1036,-235,-53
15510,19090135,566,-1590,-994,1062,-351,0
15511,19090145,584,-1630,-1015,1104,-333,35
15512,19090155,583,-1705,-1002,1107,-216,48
15513,19090165,560,-1782,-989,1026,-94,-50
15514,19090175,559,-1705,-982,920,-84,-109
15515,19090185,638,-1667,-937,848,-78,-157
15516,19090195,648,-1664,-907,809,-80,-157
15517,19090205,625,-1645,-908,743,-115,-132
15518,19090215,651,-1617,-922,680,-157,-128
15519,19090225,665,-1630,-949,656,-197,-95
15520,19090235,626,-1674,-1020,637,-245,-45
15521,19090245,588,-1678,-1111,585,-284,-256
15522,19090242,588,-1679,-1111,586,-285,-20
15523,19090252,616,-1652,-1144,607,-232,-88
15524,19090262,623,-1596,-1128,678,-180,-155
15525,19090272,609,-1593,-1133,756,-167,-145
15526,19090282,618,-1569,-1098,865,-124,-134
15527,19090292,610,-1575,-1103,927,-127,-111
15528,19090302,585,-1602,-1102,975,-140,-88
15529,19090312,602,-1620,-1059,1000,-129,-73
15530,19090322,635,-1636,-1020,1008,-127,-80
15531,19090332,654,-1637,-1009,984,-140,-115
15532,19090342,625,-1625,-1022,944,-176,-119
15533,19090352,641,-1600,-1052,932,-202,-127
15534,19090362,649,-1615,-1133,948,-209,-117
15535,19090372,619,-1654,-1129,977,-151,-145
15536,19090382,638,-1668,-1115,1017,-57,-237
15537,19090392,701,-1923,-1095,1024,-2,-291
15538,19090402,617,-1594,-1068,942,31,-361
15539,19090412,652,-1510,-993,766,2,-441
15540,19090422,683,-1523,-899,852,22,-351
15541,19090432,685,-1541,-907,845,-54,-226
15542,19090442,672,-1564,-931,729,-167,-172
15543,19090452,669,-1558,-990,670,-240,-122
15544,19090462,701,-1559,-1064,702,-311,-66
15545,19090472,646,-1599,-1121,818,-316,-26
15546,19090482,631,-1648,-1123,960,-250,-20
15547,19090492,662,-1641,-1117,989,-199,-256
15548,19090489,663,-1642,-1117,990,-200,-48
15549,19090499,673,-1656,-1147,972,-176,-75
15550,19090509,658,-1670,-1137,971,-112,-139
15551,19090519,692,-1627,-1082,972,-16,-237
15552,19090529,723,-1559,-1019,917,12,-314
15553,19090539,700,-1519,-989,883,-29,-289
15554,19090549,682,-1516,-1030,848,-115,-223
15555,19090559,701,-1513,-1049,832,-182,-164
15556,19090569,707,-1540,-1048,813,-220,-123
15557,19090579,684,-1548,-1067,809,-253,-96
15558,19090589,683,-1559,-1054,794,-280,-71
15559,19090599,692,-1579,-1071,791,-297,-57
15560,19090609,658,-1488,-1087,757,-295,-42
15561,19090619,660,-1534,-1115,812,-300,-37
15562,19090629,645,-1530,-1137,849,-271,-14
15563,19090639,670,-1601,-1119,925,-241,16
15564,19090649,649,-1604,-1136,960,-243,50
15565,19090659,639,-1572,-1126,938,-250,40
15566,19090669,691,-1510,-1044,988,-233,-2
15567,19090679,690,-1519,-1076,987,-284,73
15568,19090689,651,-1572,-1129,950,-352,165
15569,19090699,644,-1605,-1164,940,-369,253
15570,19090709,662,-1630,-1149,933,-326,163
15571,19090719,635,-1589,-1138,899,-321,86
15572,19090729,612,-1572,-1180,893,-329,50
15573,19090739,654,-1542,-1171,907,-272,-256
15574,19090736,654,-1543,-1171,908,-272,-14
15575,19090746,636,-1534,-1154,942,-213,-52
15576,19090756,633,-1558,-1151,976,-186,-63
15577,19090766,639,-1548,-1150,976,-174,-67
15578,19090776,635,-1559,-1137,995,-159,-68
15579,19090786,624,-1567,-1132,1002,-135,-73
15580,19090796,613,-1587,-1103,1013,-118,-74
15581,19090806,658,-1560,-1083,1000,-110,-91
15582,19090816,648,-1561,-1089,1007,-143,-80
15583,19090826,616,-1548,-1124,989,-179,-66
15584,19090836,640,-1568,-1106,1007,-176,-54
15585,19090846,667,-1575,-1090,1034,-173,-30
15586,19090856,642,-1592,-1072,1022,-181,-22
15587,19090866,627,-1499,-1109,987,-210,-37
15588,19090876,667,-1560,-1117,1083,-230,-12
15589,19090886,635,-1575,-1123,1107,-273,123
15590,19090896,585,-1559,-1136,1101,-282,157
15591,19090906,612,-1566,-1133,1122,-262,122
15592,19090916,624,-1556,-1121,1127,-258,164
15593,19090926,610,-1554,-1099,1130,-267,201
15594,19090936,612,-1595,-1072,1121,-278,243
15595,19090946,609,-1618,-1064,1122,-289,310
15596,19090956,591,-1660,-1176,1097,-313,285
15597,19090966,611,-1617,-1112,1113,-292,125
15598,19090976,569,-1623,-1108,1113,-234,62
15599,19090986,616,-1595,-1071,1081,-199,-256
15600,19090982,616,-1596,-1071,1082,-200,0
15601,19090992,592,-1601,-1075,1021,-198,18
15602,19091002,606,-1623,-1124,1012,-176,-37
15603,19091012,581,-1673,-1107,1046,-168,-8
15604,19091022,549,-1610,-1137,1005,-143,-76
15605,19091032,541,-1574,-1086,1026,-118,-141
15606,19091042,568,-1603,-1058,1043,-91,-134
15607,19091052,617,-1618,-1031,1041,-85,-126
15608,19091062,582,-1625,-1068,981,-140,-124
15609,19091072,600,-1614,-1082,961,-186,-120
15610,19091082,619,-1591,-1066,952,-181,-125
15611,19091092,622,-1582,-1081,951,-209,-106
15612,19091102,586,-1592,-1114,961,-242,-81
15613,19091112,607,-1602,-1107,984,-228,-77
15614,19091122,634,-1593,-1082,1003,-223,-81
15615,19091132,597,-1593,-1104,997,-244,-72
15616,19091142,594,-1588,-1113,998,-260,-55
15617,19091152,602,-1588,-1094,995,-251,-41
15618,19091162,569,-1588,-1070,983,-248,-26
15619,19091172,561,-1596,-1050,959,-264,-21
15620,19091182,592,-1626,-1065,929,-288,-16
15621,19091192,599,-1616,-1103,881,-324,5
15622,19091202,552,-1626,-1114,886,-326,5
15623,19091212,559,-1630,-1107,944,-244,-44
15624,19091222,589,-1633,-1084,978,-198,-50
15625,19091232,565,-1607,-1106,968,-202,-256
15626,19091229,565,-1608,-1106,969,-202,-75
15627,19091239,546,-1606,-1098,992,-184,-103
15628,19091249,576,-1602,-1101,1008,-168,-97
15629,19091259,575,-1594,-1091,1002,-176,-101
15630,19091269,552,-1609,-1105,991,-181,-104
15631,19091279,548,-1609,-1075,992,-169,-106
15632,19091289,586,-1594,-1060,983,-165,-115
15633,19091299,575,-1594,-1083,962,-181,-113
15634,19091309,553,-1614,-1100,961,-181,-91
15635,19091319,588,-1609,-1104,965,-163,-91
15636,19091329,609,-1602,-1097,963,-165,-107
15637,19091339,585,-1602,-1111,953,-171,-101
15638,19091349,582,-1587,-1113,951,-187,-78
15639,19091359,599,-1582,-1123,963,-190,-62
15640,19091369,594,-1593,-1101,975,-188,-56
15641,19091379,564,-1610,-1097,970,-188,-56
15642,19091389,592,-1609,-1084,975,-189,-53
15643,19091399,593,-1615,-1098,972,-189,-55
15644,19091409,565,-1621,-1099,988,-172,-67
15645,19091419,569,-1583,-1095,987,-157,-88
15646,19091429,611,-1584,-1112,975,-162,-74
15647,19091439,577,-1595,-1116,969,-169,-62
15648,19091449,564,-1592,-1123,976,-168,-81
15649,19091459,584,-1575,-1116,982,-165,-81
15650,19091469,611,-1572,-1105,986,-175,-58
15651,19091479,602,-1593,-1082,996,-184,-256
15652,19091476,602,-1593,-1081,997,-185,-19
15653,19091486,564,-1605,-1109,999,-225,52
15654,19091496,578,-1630,-1159,1050,-236,77
15655,19091506,558,-1605,-1118,1089,-179,6
15656,19091516,544,-1607,-1094,1096,-165,-30
15657,19091526,566,-1595,-1076,1102,-174,-16
15658,19091536,579,-1611,-1048,1077,-181,-2
15659,19091546,544,-1617,-1045,1036,-191,-10
15660,19091556,554,-1582,-1016,981,-205,-34
15661,19091566,606,-1564,-1034,917,-222,-23
15662,19091576,594,-1543,-1098,882,-281,89
15663,19091586,437,-861,-1020,986,-318,185
15664,19091596,394,-2014,-1288,1432,-290,118
15665,19091606,530,-1634,-1270,685,-540,714
15666,19091616,504,-1662,-1147,1096,-466,175
15667,19091626,538,-1579,-1037,1106,-355,129
15668,19091636,520,-1610,-1078,1068,-423,175
15669,19091646,397,-1616,-1242,965,-422,203
15670,19091656,408,-1551,-1253,1049,-124,-24
15671,19091666,333,-1691,-1296,1313,153,-130
15672,19091676,520,-1704,-1066,1598,512,-536
15673,19091686,599,-1651,-920,1619,527,-708
15674,19091696,592,-1642,-897,1419,320,-538
15675,19091706,600,-1663,-940,1194,148,-358
15676,19091716,606,-1688,-1006,1020,28,-289
15677,19091726,957,-3026,-1151,942,-32,-512
15678,19091722,958,-3026,-1151,943,-33,-275
15679,19091732,662,-1299,-1076,423,-141,-64
15680,19091742,835,-1534,-853,1325,64,-862
15681,19091752,572,-1545,-978,820,-142,-92
15682,19091762,602,-1638,-1069,799,-242,-86
15683,19091772,613,-1622,-1076,776,-216,-93
15684,19091782,625,-1624,-1044,817,-223,-124
15685,19091792,592,-1624,-1058,807,-263,-123
15686,19091802,618,-1616,-1088,811,-301,-104
15687,19091812,628,-1599,-1082,828,-297,-100
15688,19091822,610,-1600,-1053,866,-268,-92
15689,19091832,596,-1614,-1049,856,-264,-73
15690,19091842,590,-1609,-1047,828,-302,-37
15691,19091852,597,-1602,-1073,811,-342,-13
15692,19091862,575,-1599,-1099,804,-363,2
15693,19091872,571,-1614,-1164,811,-361,11
15694,19091882,584,-1634,-1181,867,-283,-18
15695,19091892,600,-1628,-1114,989,-169,-113
15696,19091902,609,-1592,-1075,1038,-159,-142
15697,19091912,616,-1595,-1088,1033,-179,-128
15698,19091922,626,-1581,-1078,1039,-175,-119
15699,19091932,604,-1595,-1079,1025,-178,-97
15700,19091942,602,-1602,-1061,1010,-185,-80
15701,19091952,601,-1594,-1078,990,-203,-69
15702,19091962,572,-1603,-1068,988,-207,-68
15703,19091972,579,-1614,-1059,985,-211,-256
15704,19091969,579,-1615,-1059,985,-211,-67
15705,19091979,614,-1594,-1079,982,-222,-68
15706,19091989,586,-1599,-1115,1019,-220,-59
15707,19091999,561,-1581,-1133,1038,-199,-55
15708,19092009,588,-1586,-1131,1066,-174,-52
15709,19092019,607,-1581,-1120,1074,-170,-43
15710,19092029,581,-1592,-1096,1084,-164,-36
15711,19092039,582,-1599,-1075,1078,-167,-35
15712,19092049,600,-1605,-1065,1063,-174,-20
15713,19092059,595,-1619,-1071,1049,-174,-19
15714,19092069,549,-1651,-1058,1040,-167,-32
15715,19092079,578,-1634,-1048,1016,-174,-40
15716,19092089,603,-1630,-1049,994,-183,-73
15717,19092099,576,-1623,-1062,960,-195,-83
15718,19092109,568,-1642,-1074,945,-200,-84
15719,19092119,604,-1605,-1083,949,-180,-94
15720,19092129,610,-1592,-1081,947,-178,-97
15721,19092139,599,-1599,-1090,960,-175,-98
15722,19092149,591,-1607,-1078,968,-169,-88
15723,19092159,610,-1602,-1110,975,-169,-89
15724,19092169,580,-1602,-1098,996,-174,-89
15725,19092179,574,-1609,-1101,1022,-165,-69
15726,19092189,588,-1599,-1080,1020,-149,-59
15727,19092199,570,-1628,-1049,1025,-141,-46
15728,19092209,543,-1639,-1060,1010,-135,-62
15729,19092219,565,-1620,-1075,1005,-133,-256
15730,19092216,565,-1621,-1075,1006,-134,-76
15731,19092226,552,-1472,-1062,1024,-110,-81
15732,19092236,587,-1665,-1083,1153,-99,-74
15733,19092246,551,-1622,-1096,1114,-111,-27
15734,19092256,597,-1622,-1108,1105,-125,-75
15735,19092266,605,-1625,-1108,1169,-127,-103
15736,19092276,572,-1671,-1066,1287,-103,-62
15737,19092286,584,-1639,-1037,1265,-110,-27
15738,19092296,620,-1589,-1021,1226,-122,-82
15739,19092306,601,-1575,-1016,1229,-132,-44
15740,19092316,588,-1606,-1010,1221,-167,81
15741,19092326,597,-1621,-1016,1183,-193,171
15742,19092336,602,-1637,-1021,1177,-202,170
15743,19092346,581,-1668,-1022,1119,-209,124
15744,19092356,596,-1639,-1031,1080,-206,90
15745,19092366,594,-1649,-1010,1084,-202,65
15746,19092376,561,-1668,-1053,1104,-217,75
15747,19092386,541,-1651,-1063,1152,-220,97
15748,19092396,551,-1669,-1043,1205,-192,172
15749,19092406,544,-1676,-1040,1187,-184,189
15750,19092416,527,-1676,-1032,1150,-201,141
15751,19092426,582,-1665,-1020,1136,-197,98
15752,19092436,597,-1677,-988,1104,-188,68
15753,19092446,573,-1662,-999,1048,-198,61
15754,19092456,532,-1660,-1022,993,-209,47
15755,19092466,557,-1653,-1022,972,-175,0
15756,19092462,557,-1654,-1022,973,-176,14
15757,19092472,567,-1663,-1025,979,-133,-47
15758,19092482,532,-1654,-1010,986,-140,-44
15759,19092492,560,-1646,-1003,986,-152,-28
15760,19092502,575,-1667,-979,974,-151,-21
15761,19092512,534,-1692,-963,961,-152,-13
15762,19092522,521,-1689,-957,925,-168,-23
15763,19092532,543,-1679,-990,794,-193,-63
15764,19092542,542,-1675,-1005,770,-194,-132
15765,19092552,531,-1630,-1028,695,-208,-157
15766,19092562,559,-1625,-1056,662,-238,-128
15767,19092572,563,-1608,-1105,651,-251,-104
15768,19092582,516,-1592,-1119,689,-230,-106
15769,19092592,528,-1624,-1113,783,-205,-93
15770,19092602,547,-1642,-1066,895,-166,-71
15771,19092612,557,-1668,-1026,960,-130,-70
15772,19092622,531,-1674,-1010,986,-126,-75
15773,19092632,544,-1666,-1007,982,-155,-70
15774,19092642,544,-1662,-1036,984,-185,-25
15775,19092652,527,-1655,-1067,985,-193,-21
15776,19092662,537,-1639,-1071,986,-194,-41
15777,19092672,585,-1666,-1048,985,-190,-40
15778,19092682,560,-1654,-1053,954,-191,-40
15779,19092692,532,-1655,-1042,930,-190,-54
15780,19092702,566,-1667,-1052,943,-176,-70
15781,19092712,556,-1666,-1053,957,-173,-256
15782,19092709,556,-1667,-1053,957,-173,-69
15783,19092719,524,-1639,-1070,952,-162,-76
15784,19092729,530,-1625,-1065,954,-143,-107
15785,19092739,567,-1633,-1052,1008,-135,-90
15786,19092749,553,-1617,-1040,1019,-155,-33
15787,19092759,555,-1620,-1048,1013,-165,9
15788,19092769,565,-1667,-1051,1062,-170,112
15789,19092779,560,-1633,-1043,1066,-184,191
15790,19092789,591,-1666,-892,1221,-228,187
15791,19092799,512,-1487,-853,1120,-307,363
15792,19092809,947,-2445,-1169,1061,-330,252
15793,19092819,318,-1701,-1370,414,-642,885
15794,19092829,467,-1768,-1191,836,-451,164
15795,19092839,534,-1627,-1131,878,-177,-99
15796,19092849,497,-1629,-1089,913,-208,-24
15797,19092859,432,-1644,-1119,938,-244,-26
15798,19092869,421,-1691,-1139,927,-225,-43
15799,19092879,397,-1751,-1145,911,-193,-75
15800,19092889,462,-1710,-1196,1000,-187,-221
15801,19092899,464,-1624,-1327,1084,-249,-381
15802,19092909,568,-1558,-1328,1197,-281,-367
15803,19092919,589,-1606,-1282,1394,-252,-236
15804,19092929,-59,-880,-1374,1464,-321,-69
15805,19092939,816,-1576,-1278,1403,-368,-189
15806,19092949,690,-1874,-1274,2111,-295,-304
15807,19092959,84,-1599,-1504,1484,-732,512
15808,19092956,84,-1599,-1504,1484,-733,676
15809,19092966,336,-1996,-1508,2108,-1286,639
15810,19092976,378,-2133,-1600,2630,-1527,695
15811,19092986,374,-1911,-1518,2970,-1486,155
15812,19092996,482,-1870,-1516,3213,-1485,-223
15813,19093006,265,-1712,-1269,3390,-1687,-67
15814,19093016,312,-1824,-998,3826,-1636,21
15815,19093026,254,-1849,-844,4015,-1557,-16
15816,19093036,262,-1787,-706,3893,-1578,-145
15817,19093046,327,-1767,-612,3694,-1560,-358
15818,19093056,418,-1731,-658,3305,-1514,-431
15819,19093066,375,-1732,-573,3047,-1588,-305
15820,19093076,366,-1836,-526,3084,-1664,-178
15821,19093086,358,-1896,-368,3068,-1806,-135
15822,19093096,385,-1876,-558,2988,-1876,-231
15823,19093106,360,-1725,-638,2736,-2168,-215
15824,19093116,438,-1672,-543,2956,-2352,-133
15825,19093126,431,-1725,-418,3360,-2383,60
15826,19093136,358,-1809,-329,3681,-2364,269
15827,19093146,331,-1851,-261,3906,-2408,405
15828,19093156,314,-1915,-176,4076,-2472,477
15829,19093166,270,-1948,-92,4175,-2508,503
15830,19093176,269,-1912,-5,4132,-2478,458
15831,19093186,329,-1853,44,3988,-2367,344
15832,19093196,396,-1764,89,3777,-2211,277
15833,19093206,387,-1774,98,3576,-2048,256
15834,19093202,387,-1774,99,3576,-2048,307
15835,19093212,354,-1790,148,3396,-1898,376
15836,19093222,284,-1870,139,3205,-1817,463
15837,19093232,132,-2093,95,3035,-1808,614
15838,19093242,-69,-2349,-28,2838,-1948,730
15839,19093252,-219,-2484,-177,2624,-2149,745
15840,19093262,-257,-2468,-315,2483,-2215,451
15841,19093272,-249,-2343,-409,2375,-1943,41
15842,19093282,-177,-2245,-469,2295,-1491,-294
15843,19093292,-106,-2169,-440,2170,-984,-438
15844,19093302,-42,-2127,-369,2007,-489,-453
15845,19093312,-41,-2115,-301,1736,-31,-399
15846,19093322,17,-2078,-280,1385,372,-296
15847,19093332,21,-2057,-211,1086,717,-150
15848,19093342,-15,-2006,-128,860,1028,-68
15849,19093352,-39,-1969,-93,740,1254,-59
15850,19093362,-12,-1910,-19,770,1338,-51
15851,19093372,-10,-1893,19,967,1355,-55
15852,19093382,-41,-1897,133,1344,1328,-83
15853,19093392,20,-1842,293,1805,1314,-179
15854,19093402,95,-1812,457,2281,1343,-381
15855,19093412,100,-1835,618,2610,1320,-464
15856,19093422,37,-1830,753,2731,1306,-485
15857,19093432,57,-1838,901,2688,1340,-515
15858,19093442,7,-1855,1023,2538,1401,-479
15859,19093452,-8,-1865,1118,2254,1466,-512
15860,19093449,-7,-1866,1119,2255,1466,-395
15861,19093459,25,-1848,1166,1890,1518,-332
15862,19093469,58,-1832,1205,1554,1550,-286
15863,19093479,62,-1808,1226,1296,1535,-237
15864,19093489,87,-1791,1238,1082,1474,-228
15865,19093499,160,-1739,1184,862,1398,-249
15866,19093509,153,-1692,1091,730,1252,-230
15867,19093519,98,-1628,967,712,1108,-219
15868,19093529,98,-1594,920,841,1064,-220
15869,19093539,112,-1613,947,1079,1023,-192
15870,19093549,107,-1647,1007,1287,950,-186
15871,19093559,93,-1679,1044,1416,851,-166
15872,19093569,98,-1731,1087,1409,783,-120
15873,19093579,90,-1744,1126,1278,788,-91
15874,19093589,66,-1757,1127,1038,812,-50
15875,19093599,51,-1783,1111,753,820,20
15876,19093609,60,-1808,1027,499,764,104
15877,19093619,-32,-1881,957,364,668,178
15878,19093629,-31,-1910,909,366,586,169
15879,19093639,6,-1901,906,432,499,100
15880,19093649,53,-1872,849,485,432,-4
15881,19093659,41,-1833,753,499,373,-57
15882,19093669,79,-1819,686,554,362,-68
15883,19093679,91,-1823,633,629,348,-48
15884,19093689,51,-1836,597,641,369,-2
15885,19093699,3,-1850,507,661,383,0
15886,19093696,3,-1851,507,662,382,54
15887,19093706,-23,-1877,459,746,390,91
15888,19093716,-52,-1923,477,912,446,128
15889,19093726,-76,-1963,542,1065,529,116
15890,19093736,-40,-1976,605,1137,535,91
15891,19093746,-55,-1968,601,1121,479,63
15892,19093756,-111,-1932,589,1063,422,82
15893,19093766,-88,-1922,565,1008,402,115
15894,19093776,-89,-1913,514,912,407,139
15895,19093786,-167,-1931,456,836,439,172
15896,19093796,-266,-1970,440,856,514,172
15897,19093806,-281,-1986,480,942,571,124
15898,19093816,-258,-1962,532,969,626,50
15899,19093826,-274,-1961,578,963,653,24
15900,19093836,-276,-1952,597,922,664,33
15901,19093846,-238,-1945,552,843,672,31
15902,19093856,-254,-1956,540,778,704,48
15903,19093866,-293,-1997,491,712,708,94
15904,19093876,-333,-2012,403,627,708,100
15905,19093886,-373,-2018,322,585,707,89
15906,19093896,-391,-2011,315,683,739,42
15907,19093906,-378,-1975,315,837,758,-59
15908,19093916,-351,-1957,376,1038,776,-94
15909,19093926,-334,-1938,446,1211,796,-107
15910,19093936,-351,-1946,473,1293,809,-134
15911,19093946,-323,-1992,529,1359,860,-256
15912,19093942,-323,-1993,529,1359,860,-120
15913,19093952,-359,-2049,526,1328,864,-65
15914,19093962,-392,-2036,503,1201,924,-141
15915,19093972,-373,-2019,547,1151,1041,-227
15916,19093982,-314,-1987,536,1086,1080,-283
15917,19093992,-333,-1967,518,1091,1031,-303
15918,19094002,-357,-1959,521,1159,934,-286
15919,19094012,-323,-1919,575,1253,891,-279
15920,19094022,-262,-1928,637,1381,864,-277
15921,19094032,-278,-1949,720,1455,853,-268
15922,19094042,-251,-1956,792,1425,852,-244
15923,19094052,-227,-1950,792,1233,857,-220
15924,19094062,-272,-1947,747,1000,836,-177
15925,19094072,-318,-1958,728,866,875,-150
15926,19094082,-291,-1973,739,773,897,-140
15927,19094092,-261,-1969,715,709,885,-144
15928,19094102,-268,-1950,679,694,814,-159
15929,19094112,-277,-1967,676,767,738,-152
15930,19094122,-231,-1956,665,856,644,-131
15931,19094132,-239,-1966,672,893,565,-103
15932,19094142,-272,-2004,653,878,492,-73
15933,19094152,-282,-2014,625,813,449,-30
15934,19094162,-276,-2032,608,749,463,-15
15935,19094172,-311,-2038,582,697,513,-30
15936,19094182,-359,-2041,491,642,527,-57
15937,19094192,-379,-2042,455,686,592,-256
15938,19094189,-379,-2043,455,687,591,-109
15939,19094199,-353,-2039,472,821,628,-190
15940,19094209,-367,-2030,523,926,617,-261
15941,19094219,-345,-2040,592,994,573,-250
15942,19094229,-317,-2052,644,1003,538,-233
15943,19094239,-317,-2035,650,931,506,-221
15944,19094249,-307,-2023,636,836,463,-194
15945,19094259,-287,-2007,610,760,414,-162
15946,19094269,-318,-2026,553,697,356,-130
15947,19094279,-377,-2037,485,672,307,-97
15948,19094289,-366,-2023,489,735,245,-103
15949,19094299,-350,-2009,461,840,222,-139
15950,19094309,-392,-1987,464,927,253,-179
15951,19094319,-356,-1986,503,998,274,-194
15952,19094329,-307,-1955,504,991,275,-212
15953,19094339,-287,-1946,515,937,250,-180
15954,19094349,-321,-1949,456,864,204,-140
15955,19094359,-289,-1922,429,814,177,-112
15956,19094369,-268,-1940,395,801,169,-80
15957,19094379,-310,-1933,355,791,142,-55
15958,19094389,-331,-1903,292,803,96,-31
15959,19094399,-326,-1895,285,856,103,-37
15960,19094409,-318,-1896,300,905,142,-44
15961,19094419,-327,-1913,328,927,171,-48
15962,19094429,-296,-1937,386,934,189,-5
15963,19094439,-301,-1941,356,869,178,0
15964,19094436,-301,-1942,356,870,177,42
15965,19094446,-367,-1979,302,788,150,67
15966,19094456,-407,-1995,225,751,145,82
15967,19094466,-390,-1993,190,778,197,56
15968,19094476,-405,-2006,202,866,238,35
15969,19094486,-444,-2035,176,932,228,23
15970,19094496,-428,-2008,184,963,268,-2
15971,19094506,-384,-2019,252,1046,333,-26
15972,19094516,-392,-1995,296,1085,361,-53
15973,19094526,-408,-1997,299,1053,341,-43
15974,19094536,-361,-2009,321,1041,343,-28
15975,19094546,-367,-2016,316,1019,336,-31
15976,19094556,-407,-2036,298,971,321,-21
15977,19094566,-388,-2005,284,939,295,-9
15978,19094576,-365,-1998,262,934,281,-26
15979,19094586,-388,-1992,275,951,313,-40
15980,19094596,-371,-1984,287,1000,352,-40
15981,19094606,-373,-2006,317,1004,341,-12
15982,19094616,-398,-2004,328,971,322,26
15983,19094626,-438,-2033,369,956,325,41
15984,19094636,-410,-2036,396,937,320,29
15985,19094646,-424,-2028,364,905,311,12
15986,19094656,-423,-2044,362,891,298,17
15987,19094666,-453,-2047,326,900,260,-3
15988,19094676,-444,-2020,324,911,250,-9
15989,19094686,-449,-2031,322,958,249,-256
15990,19094683,-449,-2032,323,958,249,-10
15991,19094693,-488,-2023,324,986,259,-36
15992,19094703,-451,-2016,345,993,261,-64
15993,19094713,-437,-1985,372,996,262,-86
15994,19094723,-463,-1998,365,990,237,-77
15995,19094733,-488,-1974,325,981,228,-88
15996,19094743,-458,-1946,346,1028,283,-114
15997,19094753,-417,-1936,405,1092,300,-130
15998,19094763,-419,-1923,412,1087,266,-135
15999,19094773,-408,-1920,400,1064,175,-99
16000,19094783,-398,-1900,380,1023,102,-90
16001,19094793,-421,-1880,384,1013,63,-76
16002,19094803,-391,-1892,397,1019,45,-64
16003,19094813,-368,-1878,366,987,26,-39
16004,19094823,-382,-1887,337,953,18,-21
16005,19094833,-409,-1907,318,957,50,-26
16006,19094843,-391,-1921,281,981,61,-22
16007,19094853,-383,-1929,245,968,61,-35
16008,19094863,-410,-1953,231,1012,65,-28
16009,19094873,-407,-1944,225,1037,53,-58
16010,19094883,-386,-1936,229,1044,49,-50
16011,19094893,-384,-1931,230,1047,50,-31
16012,19094903,-404,-1922,243,1049,60,-47
16013,19094913,-383,-1917,247,1027,78,-23
16014,19094923,-362,-1911,276,1002,108,1
16015,19094933,-396,-1916,248,963,122,0
16016,19094929,-396,-1917,248,964,121,4
16017,19094939,-410,-1924,191,934,126,23
16018,19094949,-383,-1957,162,943,162,17
16019,19094959,-425,-1976,122,982,197,7
16020,19094969,-430,-1979,133,1033,238,-15
16021,19094979,-408,-1992,140,1088,258,-16
16022,19094989,-422,-1992,140,1093,241,10
16023,19094999,-447,-1991,148,1075,230,14
16024,19095009,-463,-2000,171,1066,255,16
16025,19095019,-428,-1985,178,1072,272,26
16026,19095029,-437,-1987,166,1042,261,16
16027,19095039,-464,-1990,164,1024,285,24
16028,19095049,-466,-1997,166,1029,292,46
16029,19095059,-462,-2007,150,1031,271,55
16030,19095069,-500,-1997,147,1057,298,51
16031,19095079,-513,-2002,198,1142,342,36
16032,19095089,-483,-1987,223,1170,334,30
16033,19095099,-478,-1981,240,1154,314,37
16034,19095109,-519,-1965,270,1142,304,43
16035,19095119,-491,-1955,273,1114,289,45
16036,19095129,-465,-1962,276,1079,278,60
16037,19095139,-485,-1950,277,1034,268,82
16038,19095149,-517,-1934,231,998,257,87
16039,19095159,-483,-1943,225,1049,281,86
16040,19095169,-496,-2006,228,1084,309,106
16041,19095179,-572,-2004,206,1078,273,0
16042,19095176,-572,-2005,207,1079,272,113
16043,19095186,-556,-2004,210,1093,280,72
16044,19095196,-523,-1999,214,1140,330,23
16045,19095206,-545,-2001,244,1170,374,-8
16046,19095216,-545,-1982,275,1133,382,-26
16047,19095226,-508,-1971,284,1111,380,-34
16048,19095236,-526,-1970,274,1099,375,-25
16049,19095246,-569,-1939,264,1071,364,-20
16050,19095256,-552,-1944,291,1074,360,-4
16051,19095266,-512,-1929,301,1064,356,-12
16052,19095276,-551,-1937,299,1043,326,8
16053,19095286,-576,-1957,296,1027,303,21
16054,19095296,-572,-1991,261,996,325,5
16055,19095306,-556,-1998,279,945,361,-7
16056,19095316,-575,-1992,244,872,346,-29
16057,19095326,-568,-1988,159,828,345,-26
16058,19095336,-532,-1971,143,851,360,-42
16059,19095346,-556,-1958,150,942,386,-50
16060,19095356,-561,-1957,150,1006,340,-33
16061,19095366,-544,-1943,126,1038,306,2
16062,19095376,-554,-1949,136,1053,294,7
16063,19095386,-566,-1976,147,1050,311,14
16064,19095396,-579,-1994,141,982,321,29
16065,19095406,-575,-1989,132,926,352,31
16066,19095416,-586,-1969,142,873,363,4
16067,19095426,-620,-1954,142,837,380,0
16068,19095423,-620,-1955,142,837,379,17
16069,19095433,-573,-1955,95,814,403,5
16070,19095443,-576,-1910,80,833,465,-18
16071,19095453,-586,-1904,90,920,468,-3
16072,19095463,-584,-1904,90,999,474,19
16073,19095473,-589,-1901,105,1103,438,37
16074,19095483,-587,-1914,136,1166,410,37
16075,19095493,-637,-1925,168,1189,391,61
16076,19095503,-622,-1937,190,1180,392,74
16077,19095513,-628,-1947,215,1129,399,65
16078,19095523,-649,-1956,226,1064,414,54
16079,19095533,-623,-1948,217,989,404,46
16080,19095543,-632,-1919,206,924,390,30
16081,19095553,-634,-1922,186,909,382,32
16082,19095563,-642,-1900,182,911,360,25
16083,19095573,-621,-1852,176,938,329,39
16084,19095583,-645,-1863,175,989,303,66
16085,19095593,-688,-1874,196,1053,286,88
16086,19095603,-653,-1878,201,1090,271,83
16087,19095613,-640,-1886,194,1102,266,87
16088,19095623,-703,-1919,153,1088,268,84
16089,19095633,-708,-1915,167,1083,331,35
16090,19095643,-656,-1922,212,1104,396,2
16091,19095653,-650,-1940,218,1052,355,15
16092,19095663,-691,-1930,180,987,322,16
16093,19095673,-683,-1913,195,968,279,0
16094,19095669,-682,-1914,196,969,278,37
16095,19095679,-628,-1932,202,997,263,26
16096,19095689,-667,-1930,209,1013,209,21
16097,19095699,-707,-1926,193,1006,162,48
16098,19095709,-701,-1942,149,993,131,41
16099,19095719,-750,-1970,118,988,186,15
16100,19095729,-744,-1993,144,1015,267,-28
16101,19095739,-695,-1989,158,990,335,-94
16102,19095749,-680,-1990,134,943,322,-101
16103,19095759,-710,-1941,77,886,262,-99
16104,19095769,-707,-1911,97,904,239,-97
16105,19095779,-651,-1890,132,1015,248,-109
16106,19095789,-641,-1866,158,1077,196,-74
16107,19095799,-658,-1918,161,1167,156,-48
16108,19095809,-658,-1938,154,1180,155,-22
16109,19095819,-654,-1982,127,1155,161,-29
16110,19095829,-705,-2020,100,1108,164,-36
16111,19095839,-755,-2048,38,1066,174,-49
16112,19095849,-726,-2035,43,1058,233,-106
16113,19095859,-688,-2013,77,1062,307,-159
16114,19095869,-700,-2006,96,1060,280,-175
16115,19095879,-673,-1982,84,1057,226,-168
16116,19095889,-643,-1969,93,1070,182,-140
16117,19095899,-660,-1982,118,1120,173,-125
16118,19095909,-671,-1979,123,1114,149,-107
16119,19095919,-680,-1986,88,1095,114,-256
