sequence,timestamp_ms,accel_x,accel_y,accel_z,gyro_x,gyro_y,gyro_z
18096,19114663,-1881,-468,-186,747,-195,192
18097,19114673,-1853,-452,-178,748,-237,194
18098,19114683,-1874,-430,-186,740,-278,188
18099,19114693,-1900,-426,-147,742,-314,190
18100,19114703,-1855,-400,-125,713,-339,178
18101,19114713,-1874,-373,-122,661,-385,177
18102,19114723,-1970,-325,-149,598,-441,189
18103,19114733,-2031,-259,-184,543,-493,207
18104,19114743,-2159,-205,-217,512,-523,232
18105,19114753,-2266,-189,-251,479,-517,244
18106,19114763,-2326,-182,-282,425,-517,242
18107,19114773,-2315,-203,-308,377,-528,259
18108,19114783,-2293,-245,-329,314,-532,258
18109,19114793,-2254,-278,-351,296,-533,231
18110,19114803,-2165,-265,-366,335,-532,189
18111,19114813,-2074,-261,-337,412,-519,139
18112,19114823,-2029,-258,-284,503,-518,93
18113,19114833,-1976,-232,-240,560,-535,60
18114,19114843,-1936,-195,-226,580,-567,36
18115,19114853,-1936,-134,-220,582,-598,18
18116,19114863,-1954,-91,-224,566,-613,14
18117,19114873,-1957,-49,-229,549,-604,12
18118,19114883,-1968,-2,-246,511,-599,12
18119,19114893,-2002,42,-251,473,-581,35
18120,19114903,-2047,61,-253,420,-561,60
18121,19114913,-2043,105,-279,373,-520,0
18122,19114910,-2043,105,-279,373,-521,95
18123,19114920,-2096,126,-282,331,-489,120
18124,19114930,-2150,146,-315,298,-450,162
18125,19114940,-2147,153,-322,260,-418,196
18126,19114950,-2152,150,-286,258,-362,229
18127,19114960,-2152,141,-288,262,-323,241
18128,19114970,-2135,140,-277,274,-323,272
18129,19114980,-2093,130,-258,276,-282,298
18130,19114990,-2060,110,-210,323,-234,307
18131,19115000,-2016,97,-195,341,-203,306
18132,19115010,-1986,82,-147,335,-208,319
18133,19115020,-1939,62,-133,341,-175,314
18134,19115030,-1921,46,-96,351,-163,296
18135,19115040,-1919,32,-108,332,-177,297
18136,19115050,-1905,63,-119,314,-204,284
18137,19115060,-1950,51,-137,324,-196,281
18138,19115070,-1995,73,-140,341,-185,256
18139,19115080,-2021,113,-146,344,-164,234
18140,19115090,-2038,150,-123,346,-138,209
18141,19115100,-2058,159,-124,380,-103,204
18142,19115110,-2085,192,-111,373,-116,182
18143,19115120,-2068,211,-94,422,-99,171
18144,19115130,-2074,214,-55,472,-86,166
18145,19115140,-2059,229,-58,521,-71,143
18146,19115150,-2007,258,-30,573,-114,119
18147,19115160,-1995,256,-7,664,-135,0
18148,19115157,-1995,256,-7,665,-136,133
18149,19115167,-2011,242,25,753,-150,131
18150,19115177,-2015,251,66,829,-174,123
18151,19115187,-1998,231,97,860,-216,126
18152,19115197,-2022,214,83,848,-238,128
18153,19115207,-2089,198,101,814,-261,115
18154,19115217,-2086,217,72,768,-271,107
18155,19115227,-2071,211,69,718,-286,81
18156,19115237,-2099,224,32,707,-295,61
18157,19115247,-2088,232,32,738,-306,40
18158,19115257,-2071,220,45,798,-322,25
18159,19115267,-2092,222,81,849,-348,9
18160,19115277,-2130,201,94,883,-368,-4
18161,19115287,-2124,202,86,896,-391,-20
18162,19115297,-2120,201,91,896,-416,-41
18163,19115307,-2133,216,90,889,-439,-62
18164,19115317,-2143,220,80,889,-464,-73
18165,19115327,-2090,243,23,904,-486,-81
18166,19115337,-2087,257,16,925,-508,-101
18167,19115347,-2110,249,15,956,-511,-101
18168,19115357,-2088,233,9,958,-503,-91
18169,19115367,-2070,235,7,942,-504,-87
18170,19115377,-2107,218,-8,910,-502,-88
18171,19115387,-2121,215,-22,880,-485,-90
18172,19115397,-2083,216,-39,861,-462,-99
18173,19115407,-2096,219,-34,853,-448,-256
18174,19115404,-2096,219,-33,854,-449,-106
18175,19115414,-2131,200,-43,862,-444,-106
18176,19115424,-2125,202,-60,885,-447,-117
18177,19115434,-2117,181,-54,920,-444,-123
18178,19115444,-2159,191,-23,953,-436,-138
18179,19115454,-2132,161,-9,986,-435,-154
18180,19115464,-2113,167,4,1007,-433,-170
18181,19115474,-2094,152,25,1022,-429,-174
18182,19115484,-2107,133,32,1005,-432,-190
18183,19115494,-2084,122,40,987,-435,-200
18184,19115504,-2093,113,55,957,-437,-202
18185,19115514,-2117,93,37,923,-432,-221
18186,19115524,-2114,93,39,888,-423,-238
18187,19115534,-2092,125,12,858,-411,-252
18188,19115544,-2085,130,-4,841,-399,-268
18189,19115554,-2098,138,-4,823,-370,-286
18190,19115564,-2073,139,0,815,-345,-294
18191,19115574,-2037,156,-21,825,-331,-284
18192,19115584,-2058,173,-32,835,-310,-286
18193,19115594,-2065,176,-8,881,-301,-271
18194,19115604,-2028,186,-23,914,-272,-261
18195,19115614,-2030,197,-18,958,-271,-241
18196,19115624,-2046,195,-23,1005,-249,-214
18197,19115634,-2017,186,-14,1020,-220,-196
18198,19115644,-2009,172,-24,1039,-198,-162
18199,19115654,-2042,180,-31,1038,-166,-256
18200,19115650,-2042,180,-31,1039,-167,-139
18201,19115660,-2040,168,-17,1037,-122,-114
18202,19115670,-2019,161,-14,1032,-80,-94
18203,19115680,-2025,153,22,1033,-42,-77
18204,19115690,-2060,142,22,1043,-7,-69
18205,19115700,-2012,155,30,1052,22,-65
18206,19115710,-2032,151,37,1056,39,-52
18207,19115720,-2044,157,60,1064,60,-35
18208,19115730,-2050,148,88,1063,85,-25
18209,19115740,-2022,135,83,1056,95,-11
18210,19115750,-2036,131,83,1044,98,-1
18211,19115760,-2068,137,80,1042,112,6
18212,19115770,-2066,124,94,1052,132,11
18213,19115780,-2052,141,109,1053,146,15
18214,19115790,-2103,129,121,1039,158,19
18215,19115800,-2134,125,133,1018,169,23
18216,19115810,-2108,126,164,992,181,30
18217,19115820,-2094,102,168,945,190,15
18218,19115830,-2141,107,156,896,174,23
18219,19115840,-2135,129,129,868,149,30
18220,19115850,-2139,148,110,855,138,16
18221,19115860,-2163,156,109,874,136,5
18222,19115870,-2151,176,128,888,133,-7
18223,19115880,-2129,181,110,884,110,7
18224,19115890,-2137,138,93,862,76,25
18225,19115900,-2153,99,54,834,31,0
18226,19115897,-2153,99,54,835,31,25
18227,19115907,-2136,61,-8,841,-11,32
18228,19115917,-2107,46,-49,864,-43,14
18229,19115927,-2084,27,-84,903,-41,-36
18230,19115937,-2066,14,-89,955,-54,-66
18231,19115947,-1993,6,-101,1001,-63,-103
18232,19115957,-1950,51,-130,1033,-80,-134
18233,19115967,-1984,47,-149,1083,-99,-156
18234,19115977,-1940,62,-154,1135,-124,-155
18235,19115987,-1918,69,-183,1176,-139,-161
18236,19115997,-1966,67,-212,1215,-165,-170
18237,19116007,-1974,115,-256,1254,-180,-175
18238,19116017,-1971,117,-265,1288,-171,-170
18239,19116027,-2005,107,-279,1304,-160,-133
18240,19116037,-2051,89,-283,1294,-151,-137
18241,19116047,-2068,24,-305,1277,-128,-112
18242,19116057,-2057,29,-305,1288,-110,-123
18243,19116067,-2082,24,-302,1304,-87,-161
18244,19116077,-2082,6,-281,1349,-86,-173
18245,19116087,-2039,25,-276,1396,-88,-200
18246,19116097,-2031,39,-256,1432,-112,-216
18247,19116107,-2031,50,-277,1458,-135,-230
18248,19116117,-2002,53,-273,1490,-178,-206
18249,19116127,-1973,40,-285,1495,-201,-181
18250,19116137,-2001,9,-294,1476,-216,-157
18251,19116147,-2026,-38,-322,1446,-231,-256
18252,19116143,-2026,-38,-322,1447,-232,-133
18253,19116153,-1970,-41,-323,1393,-230,-123
18254,19116163,-1980,-43,-370,1340,-224,-128
18255,19116173,-2017,-73,-393,1325,-225,-118
18256,19116183,-1993,-82,-387,1321,-207,-123
18257,19116193,-1990,-97,-410,1337,-192,-118
18258,19116203,-2018,-124,-434,1343,-174,-127
18259,19116213,-2070,-255,-501,1289,-169,-116
18260,19116223,-2142,-332,-641,1155,-147,-69
18261,19116233,-2159,-214,-662,839,-79,-195
18262,19116243,-2075,-259,-593,1049,203,-346
18263,19116253,-2033,-179,-518,1026,296,-341
18264,19116263,-1964,-104,-496,947,284,-378
18265,19116273,-1943,-78,-471,1023,235,-314
18266,19116283,-1947,-21,-477,1116,196,-274
18267,19116293,-1884,-42,-465,1294,147,-218
18268,19116303,-1944,-102,-453,1398,82,-127
18269,19116313,-1978,-169,-439,1440,30,-66
18270,19116323,-1976,-166,-445,1452,16,-71
18271,19116333,-1948,-186,-385,1441,1,-68
18272,19116343,-1983,-202,-396,1444,-29,-31
18273,19116353,-2004,-170,-405,1414,-87,-32
18274,19116363,-1979,-161,-423,1438,-64,-80
18275,19116373,-1996,-201,-423,1496,-66,-62
18276,19116383,-2034,-202,-413,1527,-50,-107
18277,19116393,-2012,-168,-387,1518,4,-256
18278,19116390,-2012,-168,-387,1518,4,-169
18279,19116400,-1979,-177,-353,1513,28,-194
18280,19116410,-1991,-125,-356,1466,42,-223
18281,19116420,-1992,-49,-339,1418,71,-251
18282,19116430,-1916,-40,-276,1465,108,-247
18283,19116440,-1938,-39,-288,1443,20,-208
18284,19116450,-1968,-51,-299,1398,-44,-174
18285,19116460,-1966,-81,-310,1393,-69,-148
18286,19116470,-1955,-87,-316,1357,-84,-131
18287,19116480,-2000,-121,-326,1311,-95,-120
18288,19116490,-2004,-121,-355,1284,-96,-119
18289,19116500,-1989,-120,-390,1274,-95,-117
18290,19116510,-1995,-115,-379,1312,-49,-134
18291,19116520,-1997,-99,-389,1380,19,-156
18292,19116530,-1984,-110,-356,1411,75,-168
18293,19116540,-1944,-121,-303,1427,106,-152
18294,19116550,-1971,-133,-316,1347,38,-128
18295,19116560,-1972,-127,-340,1260,-17,-106
18296,19116570,-1944,-127,-336,1227,-37,-88
18297,19116580,-1958,-140,-329,1206,-51,-76
18298,19116590,-1978,-182,-340,1179,-81,-64
18299,19116600,-1969,-196,-352,1158,-104,-58
18300,19116610,-1962,-203,-350,1145,-112,-64
18301,19116620,-1999,-234,-348,1134,-124,-69
18302,19116630,-2003,-237,-344,1120,-136,-75
18303,19116640,-1984,-238,-347,1124,-131,-256
18304,19116637,-1984,-239,-347,1124,-132,-92
18305,19116647,-1992,-241,-322,1129,-113,-106
18306,19116657,-2013,-243,-320,1133,-100,-119
18307,19116667,-1996,-236,-307,1121,-90,-136
18308,19116677,-1978,-239,-299,1115,-74,-148
18309,19116687,-2010,-233,-306,1102,-77,-159
18310,19116697,-2024,-230,-294,1084,-86,-161
18311,19116707,-1991,-231,-288,1076,-100,-165
18312,19116717,-1999,-233,-288,1064,-127,-165
18313,19116727,-2021,-236,-301,1044,-156,-165
18314,19116737,-2014,-248,-300,1046,-173,-164
18315,19116747,-1995,-240,-305,1042,-186,-164
18316,19116757,-2006,-253,-298,1017,-196,-168
18317,19116767,-2016,-260,-312,983,-197,-170
18318,19116777,-1984,-249,-318,954,-184,-175
18319,19116787,-1989,-254,-316,931,-177,-181
18320,19116797,-1991,-251,-306,920,-180,-179
18321,19116807,-1973,-240,-305,913,-193,-180
18322,19116817,-1968,-232,-318,908,-224,-172
18323,19116827,-1979,-250,-311,910,-246,-173
18324,19116837,-1982,-220,-297,915,-254,-174
18325,19116847,-1943,-215,-305,905,-245,-179
18326,19116857,-1928,-214,-300,884,-235,-189
18327,19116867,-1960,-203,-327,865,-253,-174
18328,19116877,-1956,-198,-359,834,-273,-160
18329,19116887,-1968,-182,-374,830,-267,-256
18330,19116883,-1968,-183,-374,831,-268,-148
18331,19116893,-1983,-188,-359,867,-247,-145
18332,19116903,-2012,-187,-357,866,-246,-139
18333,19116913,-1982,-171,-382,851,-256,-133
18334,19116923,-1981,-170,-373,868,-249,-137
18335,19116933,-2012,-184,-364,896,-237,-134
18336,19116943,-2005,-168,-342,912,-246,-130
18337,19116953,-1966,-188,-345,928,-254,-138
18338,19116963,-1995,-172,-334,937,-272,-135
18339,19116973,-1982,-164,-333,936,-291,-133
18340,19116983,-1936,-144,-329,933,-300,-134
18341,19116993,-1954,-143,-319,932,-305,-127
18342,19117003,-1960,-140,-326,923,-319,-119
18343,19117013,-1949,-134,-328,911,-336,-105
18344,19117023,-1927,-154,-346,904,-357,-89
18345,19117033,-1968,-146,-358,907,-368,-83
18346,19117043,-1965,-172,-365,918,-368,-79
18347,19117053,-1929,-168,-377,931,-362,-81
18348,19117063,-1933,-170,-363,936,-354,-82
18349,19117073,-1959,-164,-361,933,-354,-77
18350,19117083,-1940,-156,-367,927,-357,-66
18351,19117093,-1934,-150,-358,924,-363,-47
18352,19117103,-1961,-164,-360,919,-373,-31
18353,19117113,-1946,-185,-350,906,-380,-15
18354,19117123,-1949,-257,-415,889,-387,2
18355,19117133,-1996,-295,-451,829,-415,0
18356,19117130,-1996,-296,-451,829,-416,54
18357,19117140,-2028,-342,-494,801,-408,34
18358,19117150,-2014,-363,-500,828,-396,-5
18359,19117160,-1991,-374,-459,895,-376,-28
18360,19117170,-2001,-374,-482,923,-425,-51
18361,19117180,-2012,-392,-481,896,-363,-63
18362,19117190,-1950,-376,-461,915,-287,-75
18363,19117200,-1915,-329,-453,888,-251,-107
18364,19117210,-1956,-337,-453,861,-273,-80
18365,19117220,-1919,-300,-488,855,-263,-60
18366,19117230,-1891,-274,-481,822,-260,-48
18367,19117240,-1911,-233,-470,851,-222,-49
18368,19117250,-1910,-214,-462,921,-221,-36
18369,19117260,-1897,-213,-453,950,-241,4
18370,19117270,-1935,-201,-417,1001,-242,17
18371,19117280,-1954,-220,-374,1094,-218,21
18372,19117290,-1939,-211,-341,1112,-225,39
18373,19117300,-1927,-207,-329,1093,-234,38
18374,19117310,-1982,-216,-315,1057,-230,60
18375,19117320,-1988,-206,-296,1046,-220,61
18376,19117330,-1965,-152,-279,1015,-203,51
18377,19117340,-1964,-205,-263,1050,-201,83
18378,19117350,-2017,-211,-266,1000,-230,93
18379,19117360,-1992,-209,-275,971,-252,93
18380,19117370,-2010,-223,-272,1008,-257,101
18381,19117380,-2030,-251,-273,991,-280,0
18382,19117377,-2030,-251,-273,992,-281,101
18383,19117387,-2030,-246,-263,990,-303,86
18384,19117397,-1988,-264,-264,1008,-317,74
18385,19117407,-2000,-275,-235,1017,-336,58
18386,19117417,-2010,-290,-236,1011,-361,44
18387,19117427,-1983,-288,-231,977,-376,25
18388,19117437,-1962,-274,-267,923,-387,10
18389,19117447,-2008,-257,-280,869,-399,7
18390,19117457,-2000,-259,-310,813,-387,10
18391,19117467,-1996,-251,-346,768,-387,18
18392,19117477,-1998,-249,-399,704,-387,24
18393,19117487,-2055,-242,-461,629,-364,34
18394,19117497,-2043,-233,-507,582,-340,46
18395,19117507,-2071,-203,-552,555,-327,57
18396,19117517,-2107,-188,-534,587,-295,61
18397,19117527,-2131,-227,-533,638,-233,61
18398,19117537,-2117,-199,-538,654,-237,101
18399,19117547,-2115,-213,-530,722,-246,108
18400,19117557,-2146,-206,-484,808,-244,99
18401,19117567,-2062,-323,-414,923,-209,83
18402,19117577,-2119,-170,-332,934,-264,117
18403,19117587,-2037,-217,-245,1121,-259,50
18404,19117597,-1857,-690,-302,1083,-193,47
18405,19117607,-2182,135,-223,424,-228,-38
18406,19117617,-1785,-265,-21,1309,-238,46
18407,19117627,-1875,-276,-150,1073,-178,-256
18408,19117623,-1875,-277,-150,1073,-179,-38
18409,19117633,-2047,-181,-315,438,-381,140
18410,19117643,-1960,-46,-228,440,-337,21
18411,19117653,-1885,-80,-137,814,25,-129
18412,19117663,-1954,-32,-164,649,-175,32
18413,19117673,-1990,69,-252,506,-306,62
18414,19117683,-1941,78,-167,695,-197,22
18415,19117693,-1963,74,-138,848,-148,41
18416,19117703,-1954,155,-163,804,-242,102
18417,19117713,-1921,195,-168,805,-267,113
18418,19117723,-1953,174,-134,887,-236,175
18419,19117733,-1970,179,-108,893,-237,208
18420,19117743,-1964,206,-113,861,-246,237
18421,19117753,-1995,204,-117,867,-243,278
18422,19117763,-2053,194,-107,847,-218,306
18423,19117773,-2061,223,-108,798,-193,331
18424,19117783,-2067,234,-115,751,-159,350
18425,19117793,-2124,221,-109,701,-107,369
18426,19117803,-2141,220,-141,641,-78,391
18427,19117813,-2129,238,-170,612,-69,394
18428,19117823,-2120,250,-185,658,-57,410
18429,19117833,-2119,255,-142,743,-24,404
18430,19117843,-2075,257,-82,831,21,410
18431,19117853,-2047,352,-51,884,18,413
18432,19117863,-2061,280,33,928,4,440
18433,19117873,-2071,324,64,938,30,256
18434,19117870,-2071,324,65,939,30,466
18435,19117880,-2010,291,112,949,11,502
18436,19117890,-1996,218,130,970,8,519
18437,19117900,-2015,194,142,803,7,505
18438,19117910,-1995,188,155,655,-6,494
18439,19117920,-1972,148,157,589,-8,495
18440,19117930,-2004,119,142,478,-19,482
18441,19117940,-2034,132,140,407,1,446
18442,19117950,-2017,159,81,286,-1,420
18443,19117960,-2045,133,91,257,13,399
18444,19117970,-2070,167,74,190,36,361
18445,19117980,-2080,174,42,132,47,327
18446,19117990,-2096,162,50,147,59,312
18447,19118000,-2141,159,38,131,83,281
18448,19118010,-2194,188,31,142,84,245
18449,19118020,-2253,199,46,202,74,220
18450,19118030,-2279,228,108,280,88,175
18451,19118040,-2283,251,178,355,101,84
18452,19118050,-2257,309,237,417,65,14
18453,19118060,-2194,333,302,511,30,-44
18454,19118070,-2205,366,337,535,-42,-97
18455,19118080,-2180,377,332,622,-95,-136
18456,19118090,-2135,405,352,637,-192,-157
18457,19118100,-2126,403,331,637,-277,-173
18458,19118110,-2136,399,285,629,-350,-208
18459,19118120,-2095,415,256,605,-418,-256
18460,19118117,-2095,415,257,605,-418,-214
18461,19118127,-2113,403,205,571,-483,-200
18462,19118137,-2131,362,175,530,-521,-199
18463,19118147,-2137,411,118,456,-595,-208
18464,19118157,-2059,449,74,421,-578,-255
18465,19118167,-1996,443,92,508,-498,-294
18466,19118177,-1988,451,89,509,-506,-294
18467,19118187,-1949,469,58,493,-544,-284
18468,19118197,-1929,491,37,492,-548,-275
18469,19118207,-1932,468,38,482,-526,-266
18470,19118217,-1923,476,8,440,-503,-240
18471,19118227,-1899,487,10,377,-478,-226
18472,19118237,-1899,469,-44,313,-436,-202
18473,19118247,-1970,430,-85,271,-411,-160
18474,19118257,-1982,417,-105,252,-382,-126
18475,19118267,-1971,407,-119,264,-328,-136
18476,19118277,-2033,340,-112,312,-265,-135
18477,19118287,-2060,324,-81,331,-218,-124
18478,19118297,-2059,342,-54,328,-179,-135
18479,19118307,-2080,344,-7,337,-141,-148
18480,19118317,-2114,358,28,334,-113,-163
18481,19118327,-2084,377,57,312,-99,-167
18482,19118337,-2077,384,79,286,-93,-170
18483,19118347,-2078,336,77,256,-88,-181
18484,19118357,-2081,315,41,218,-89,-197
18485,19118367,-2017,315,40,197,-86,-256
18486,19118363,-2017,315,40,197,-86,-226
18487,19118373,-2003,325,-13,196,-82,-246
18488,19118383,-2036,320,-54,208,-82,-261
18489,19118393,-1988,345,-68,256,-58,-282
18490,19118403,-1974,342,-44,342,-31,-285
18491,19118413,-1986,355,-48,420,-25,-284
18492,19118423,-2006,355,1,461,-25,-280
18493,19118433,-1988,335,15,503,-19,-259
18494,19118443,-1994,341,18,496,-4,-248
18495,19118453,-2004,342,-14,446,9,-243
18496,19118463,-2012,329,-31,403,35,-224
18497,19118473,-1967,322,-21,373,107,-212
18498,19118483,-1998,274,16,349,167,-229
18499,19118493,-1993,266,13,328,218,-213
18500,19118503,-2012,264,27,284,262,-224
18501,19118513,-2034,258,37,304,316,-204
18502,19118523,-2069,250,63,291,335,-221
18503,19118533,-2037,264,80,256,352,-217
18504,19118543,-2026,240,102,246,376,-237
18505,19118553,-2044,241,112,257,395,-226
18506,19118563,-2084,235,118,226,380,-226
18507,19118573,-2073,236,73,196,397,-211
18508,19118583,-2138,212,73,181,443,-223
18509,19118593,-2238,176,89,119,465,-218
18510,19118603,-2235,153,67,91,486,-243
18511,19118613,-2236,104,12,79,527,-512
18512,19118610,-2236,104,12,79,527,-276
18513,19118620,-2347,114,-78,-48,529,-293
18514,19118630,-2348,161,-133,-84,525,-321
18515,19118640,-2363,149,-233,-64,525,-325
18516,19118650,-2328,135,-210,-58,553,-367
18517,19118660,-2322,179,-226,-60,618,-405
18518,19118670,-2273,139,-198,-30,580,-374
18519,19118680,-2239,62,-201,-78,566,-332
18520,19118690,-2205,29,-195,-74,529,-326
18521,19118700,-2103,25,-229,28,496,-405
18522,19118710,-2022,22,-259,238,360,-424
18523,19118720,-1989,68,-319,415,202,-448
18524,19118730,-1949,109,-349,660,70,-491
18525,19118740,-1924,75,-331,922,-50,-504
18526,19118750,-1920,126,-348,975,-123,-514
18527,19118760,-1973,65,-364,940,-174,-527
18528,19118770,-1994,41,-395,728,-199,-453
18529,19118780,-2021,-10,-525,467,-180,-429
18530,19118790,-2065,-77,-649,211,-134,-422
18531,19118800,-2137,-141,-714,56,-84,-476
18532,19118810,-2076,-158,-687,25,49,-591
18533,19118820,-2019,-93,-675,-29,126,-716
18534,19118830,-2001,24,-685,-77,94,-801
18535,19118840,-1915,112,-641,77,73,-862
18536,19118850,-1796,235,-569,294,93,-868
18537,19118860,-1739,286,-517,451,24,-1024
18538,19118857,-1739,286,-517,451,23,-878
18539,19118867,-1745,290,-475,554,-124,-796
18540,19118877,-1717,253,-461,597,-210,-725
18541,19118887,-1696,232,-464,545,-280,-644
18542,19118897,-1763,192,-515,447,-349,-582
18543,19118907,-1802,176,-591,285,-390,-523
18544,19118917,-1782,181,-634,190,-366,-492
18545,19118927,-1796,153,-632,181,-306,-468
18546,19118937,-1833,146,-613,183,-270,-456
18547,19118947,-1841,131,-546,208,-255,-433
18548,19118957,-1850,111,-500,230,-243,-402
18549,19118967,-1911,86,-469,209,-253,-379
18550,19118977,-1923,66,-434,160,-276,-365
18551,19118987,-1928,32,-397,105,-294,-347
18552,19118997,-1957,8,-367,60,-310,-329
18553,19119007,-1983,-45,-356,4,-321,-315
18554,19119017,-2006,-75,-347,-94,-335,-339
18555,19119027,-2004,-116,-354,-146,-323,-345
18556,19119037,-2020,-143,-344,-213,-303,-381
18557,19119047,-2023,-172,-354,-290,-294,-427
18558,19119057,-2022,-174,-354,-352,-284,-478
18559,19119067,-2040,-181,-386,-411,-314,-499
18560,19119077,-2076,-188,-407,-478,-323,-558
18561,19119087,-2070,-134,-402,-562,-311,-604
18562,19119097,-2033,-128,-402,-605,-296,-623
18563,19119107,-2075,-135,-420,-641,-310,-768
18564,19119103,-2075,-135,-420,-641,-310,-612
18565,19119113,-2085,-124,-445,-708,-356,-597
18566,19119123,-2042,-98,-469,-735,-351,-612
18567,19119133,-2025,-75,-470,-716,-333,-616
18568,19119143,-2006,-52,-476,-665,-331,-631
18569,19119153,-1950,-18,-464,-606,-337,-634
18570,19119163,-1898,-1,-443,-519,-354,-606
18571,19119173,-1906,-12,-438,-422,-379,-564
18572,19119183,-1911,1,-416,-341,-406,-536
18573,19119193,-1909,-33,-421,-268,-424,-499
18574,19119203,-1956,-54,-397,-236,-426,-467
18575,19119213,-1985,-119,-346,-239,-418,-459
18576,19119223,-1995,-139,-322,-313,-419,-465
18577,19119233,-2017,-148,-331,-453,-441,-476
18578,19119243,-2044,-159,-345,-596,-443,-507
18579,19119253,-2061,-158,-334,-770,-399,-543
18580,19119263,-2059,-102,-347,-925,-365,-576
18581,19119273,-2078,-53,-351,-1067,-335,-604
18582,19119283,-2111,-1,-377,-1187,-304,-619
18583,19119293,-2096,63,-382,-1275,-264,-629
18584,19119303,-2073,80,-397,-1331,-237,-616
18585,19119313,-2100,106,-426,-1378,-256,-577
18586,19119323,-2128,111,-480,-1393,-286,-538
18587,19119333,-2078,86,-511,-1369,-275,-513
18588,19119343,-2050,107,-585,-1331,-251,-514
18589,19119353,-2043,87,-651,-1289,-283,-512
18590,19119350,-2043,87,-651,-1289,-284,-483
18591,19119360,-1999,91,-709,-1255,-241,-446
18592,19119370,-1923,83,-712,-1127,-160,-425
18593,19119380,-1886,83,-682,-976,-89,-404
18594,19119390,-1843,81,-614,-846,-39,-378
18595,19119400,-1806,106,-597,-703,-14,-328
18596,19119410,-1805,85,-560,-544,-16,-259
18597,19119420,-1845,48,-537,-406,-21,-191
18598,19119430,-1848,40,-489,-288,-28,-152
18599,19119440,-1835,13,-442,-231,-35,-119
18600,19119450,-1859,-9,-378,-242,-21,-85
18601,19119460,-1862,-14,-346,-286,-14,-56
18602,19119470,-1828,-42,-334,-331,-6,-33
18603,19119480,-1825,-64,-343,-362,-27,-20
18604,19119490,-1846,-81,-371,-333,-62,-8
18605,19119500,-1824,-70,-413,-262,-125,-19
18606,19119510,-1814,-121,-428,-113,-159,-5
18607,19119520,-1873,-132,-417,-7,-173,-1
18608,19119530,-1889,-154,-392,82,-147,-35
18609,19119540,-1874,-143,-346,127,-136,-50
18610,19119550,-1901,-110,-330,93,-141,-75
18611,19119560,-1924,-123,-331,75,-142,-90
18612,19119570,-1931,-136,-316,73,-125,-99
18613,19119580,-1906,-160,-316,69,-128,-120
18614,19119590,-1958,-164,-369,81,-195,-144
18615,19119600,-1996,-184,-403,99,-262,-256
