sequence,timestamp_ms,accel_x,accel_y,accel_z,gyro_x,gyro_y,gyro_z
16120,19095916,-680,-1987,88,1096,114,-68
16121,19095926,-693,-1997,61,1079,98,-76
16122,19095936,-713,-2003,59,1104,123,-102
16123,19095946,-713,-2013,37,1103,132,-104
16124,19095956,-688,-1983,30,1043,148,-127
16125,19095966,-688,-1977,69,1081,200,-153
16126,19095976,-674,-1955,71,1113,245,-184
16127,19095986,-648,-1946,109,1144,241,-166
16128,19095996,-658,-1927,109,1187,214,-150
16129,19096006,-709,-1910,121,1184,178,-161
16130,19096016,-691,-1919,146,1187,174,-151
16131,19096026,-674,-1937,102,1158,171,-160
16132,19096036,-726,-1970,33,1121,235,-185
16133,19096046,-710,-1971,77,1162,373,-249
16134,19096056,-644,-1957,104,1230,450,-307
16135,19096066,-657,-1948,99,1215,422,-297
16136,19096076,-656,-1927,125,1205,388,-303
16137,19096086,-624,-1874,154,1212,384,-311
16138,19096096,-594,-1877,193,1231,368,-303
16139,19096106,-593,-1889,222,1257,332,-269
16140,19096116,-590,-1851,260,1249,281,-236
16141,19096126,-570,-1910,265,1201,190,-186
16142,19096136,-587,-1891,298,1158,118,-139
16143,19096146,-607,-1902,295,1079,-2,-118
16144,19096156,-605,-1884,275,1003,-125,-63
16145,19096166,-581,-1867,263,941,-204,-256
16146,19096163,-581,-1868,263,942,-204,-40
16147,19096173,-625,-1867,237,903,-275,-5
16148,19096183,-649,-1873,159,912,-296,5
16149,19096193,-600,-1920,181,975,-232,-13
16150,19096203,-592,-1927,198,1010,-191,-42
16151,19096213,-625,-1929,176,978,-236,-14
16152,19096223,-617,-1922,150,958,-271,-9
16153,19096233,-624,-1927,151,982,-270,2
16154,19096243,-686,-1936,160,988,-260,-1
16155,19096253,-723,-1943,182,1003,-243,-7
16156,19096263,-701,-1937,249,1017,-252,-31
16157,19096273,-709,-1914,299,1007,-267,-60
16158,19096283,-716,-1891,311,993,-314,-80
16159,19096293,-718,-1868,325,971,-386,-73
16160,19096303,-672,-1877,351,958,-477,-55
16161,19096313,-702,-1872,314,938,-550,-53
16162,19096323,-744,-1888,302,934,-561,-72
16163,19096333,-697,-1875,293,943,-565,-104
16164,19096343,-721,-1873,270,917,-600,-126
16165,19096353,-780,-1864,252,907,-653,-102
16166,19096363,-784,-1851,267,944,-674,-116
16167,19096373,-749,-1850,313,984,-677,-142
16168,19096383,-756,-1864,335,1020,-707,-157
16169,19096393,-783,-1873,326,1020,-772,-142
16170,19096403,-782,-1881,336,1030,-845,-129
16171,19096413,-785,-1866,306,1030,-895,-256
16172,19096409,-785,-1866,306,1031,-896,-173
16173,19096419,-802,-1864,297,1048,-890,-225
16174,19096429,-789,-1836,304,1060,-934,-232
16175,19096439,-752,-1805,283,1012,-1012,-236
16176,19096449,-740,-1770,272,983,-1072,-245
16177,19096459,-750,-1757,251,974,-1120,-208
16178,19096469,-735,-1749,261,964,-1146,-169
16179,19096479,-750,-1732,262,946,-1152,-153
16180,19096489,-735,-1741,285,924,-1134,-169
16181,19096499,-703,-1754,300,865,-1122,-161
16182,19096509,-652,-1769,284,793,-1138,-124
16183,19096519,-642,-1773,251,713,-1186,-127
16184,19096529,-596,-1798,219,682,-1240,-81
16185,19096539,-539,-1782,186,654,-1285,-78
16186,19096549,-589,-1764,147,630,-1309,-31
16187,19096559,-630,-1760,131,648,-1323,21
16188,19096569,-615,-1728,134,673,-1239,-17
16189,19096579,-631,-1683,187,724,-1125,-7
16190,19096589,-655,-1687,213,718,-1066,14
16191,19096599,-589,-1699,199,672,-1056,-7
16192,19096609,-518,-1758,222,665,-1053,76
16193,19096619,-580,-1867,180,647,-1068,193
16194,19096629,-652,-1931,132,633,-1085,277
16195,19096639,-749,-1996,76,651,-1113,307
16196,19096649,-825,-2012,30,706,-1144,286
16197,19096659,-871,-1977,73,807,-1130,0
16198,19096656,-871,-1978,73,808,-1130,175
16199,19096666,-816,-1903,175,935,-1068,59
16200,19096676,-674,-1832,291,1007,-1018,-28
16201,19096686,-644,-1841,317,957,-964,-13
16202,19096696,-656,-1912,354,894,-988,108
16203,19096706,-677,-1932,297,787,-1048,149
16204,19096716,-753,-1991,206,747,-1112,222
16205,19096726,-853,-2077,168,799,-1169,275
16206,19096736,-899,-2145,24,863,-1211,249
16207,19096746,-893,-2088,-8,947,-1281,164
16208,19096756,-803,-2026,90,1126,-1228,-30
16209,19096766,-729,-1986,295,1239,-1047,-139
16210,19096776,-700,-1970,460,1201,-924,-115
16211,19096786,-665,-1958,529,959,-935,-59
16212,19096796,-721,-1959,537,683,-964,15
16213,19096806,-774,-2078,486,582,-1002,82
16214,19096816,-787,-2143,333,478,-1060,78
16215,19096826,-838,-2163,183,453,-1157,-7
16216,19096836,-851,-2160,118,559,-1235,-92
16217,19096846,-793,-2141,76,651,-1268,-199
16218,19096856,-767,-2075,39,706,-1309,-230
16219,19096866,-726,-2019,57,778,-1260,-299
16220,19096876,-672,-2040,105,879,-1118,-345
16221,19096886,-619,-2050,117,909,-1076,-306
16222,19096896,-649,-2097,67,882,-1120,-268
16223,19096906,-704,-2158,21,919,-1123,-256
16224,19096903,-704,-2159,22,920,-1123,-249
16225,19096913,-722,-2176,99,978,-1063,-263
16226,19096923,-714,-2172,185,994,-1009,-279
16227,19096933,-730,-2166,256,925,-995,-324
16228,19096943,-808,-2143,292,851,-1022,-331
16229,19096953,-890,-2148,389,844,-989,-349
16230,19096963,-991,-2178,429,830,-959,-330
16231,19096973,-1001,-2152,522,780,-1002,-366
16232,19096983,-738,-2137,629,690,-1051,-524
16233,19096993,-637,-2112,636,477,-1087,-559
16234,19097003,-705,-2102,586,341,-1250,-470
16235,19097013,-726,-2044,493,192,-1352,-482
16236,19097023,-692,-2020,478,111,-1408,-472
16237,19097033,-629,-1910,409,29,-1481,-500
16238,19097043,-636,-1814,303,-54,-1619,-527
16239,19097053,-571,-1759,233,-22,-1786,-501
16240,19097063,-446,-1768,226,63,-1865,-488
16241,19097073,-468,-1807,207,69,-1892,-430
16242,19097083,-490,-1847,162,4,-1985,-336
16243,19097093,-585,-1922,136,-130,-2040,-240
16244,19097103,-613,-1973,93,-320,-1941,-170
16245,19097113,-598,-1956,26,-566,-1828,-228
16246,19097123,-529,-1829,-86,-668,-1771,-340
16247,19097133,-369,-1619,-172,-561,-1760,-493
16248,19097143,-227,-1528,-164,-240,-1714,-631
16249,19097153,-88,-1548,-74,147,-1649,-768
16250,19097149,-88,-1549,-73,148,-1649,-591
16251,19097159,-54,-1592,-83,318,-1668,-450
16252,19097169,-105,-1646,-200,310,-1824,-298
16253,19097179,-188,-1679,-342,328,-2012,-148
16254,19097189,-239,-1728,-517,366,-2127,-62
16255,19097199,-297,-1835,-645,443,-2191,68
16256,19097209,-387,-1954,-680,641,-2234,122
16257,19097219,-314,-1985,-584,886,-2121,-39
16258,19097229,-263,-2048,-471,1002,-1835,-191
16259,19097239,-237,-2121,-344,954,-1590,-149
16260,19097249,-226,-2145,-324,845,-1511,-121
16261,19097259,-201,-2088,-435,649,-1557,-128
16262,19097269,-185,-2042,-521,548,-1529,-183
16263,19097279,-205,-2062,-551,657,-1422,-209
16264,19097289,-180,-2094,-520,780,-1298,-242
16265,19097299,-179,-2137,-516,834,-1222,-271
16266,19097309,-253,-2224,-545,854,-1203,-238
16267,19097319,-309,-2258,-608,825,-1189,-197
16268,19097329,-335,-2275,-670,765,-1120,-227
16269,19097339,-375,-2319,-742,740,-958,-274
16270,19097349,-440,-2328,-729,799,-771,-376
16271,19097359,-398,-2261,-648,889,-531,-527
16272,19097369,-300,-2211,-424,994,-266,-680
16273,19097379,-198,-2156,-243,1018,-39,-767
16274,19097389,-105,-2117,-113,945,20,-827
16275,19097399,-31,-2083,-63,845,8,-1024
16276,19097396,-31,-2083,-63,845,7,-783
16277,19097406,-2,-2085,-71,727,-62,-743
16278,19097416,-30,-2083,-172,604,-154,-709
16279,19097426,-53,-2038,-301,518,-295,-680
16280,19097436,-10,-2023,-377,522,-428,-645
16281,19097446,-74,-2091,-469,561,-469,-602
16282,19097456,-95,-2157,-581,574,-400,-627
16283,19097466,-124,-2195,-700,517,-345,-614
16284,19097476,-99,-2219,-772,482,-331,-645
16285,19097486,-124,-2159,-854,446,-261,-711
16286,19097496,-58,-2076,-871,570,-117,-777
16287,19097506,16,-1928,-838,743,20,-837
16288,19097516,88,-1834,-745,1010,131,-875
16289,19097526,121,-1762,-651,1316,189,-830
16290,19097536,197,-1681,-526,1559,180,-761
16291,19097546,191,-1694,-392,1788,139,-659
16292,19097556,124,-1776,-246,1979,116,-520
16293,19097566,75,-1869,-102,2008,148,-415
16294,19097576,55,-1934,-49,1883,191,-351
16295,19097586,9,-1986,-15,1672,255,-322
16296,19097596,-28,-1996,16,1486,332,-341
16297,19097606,-7,-2031,82,1374,401,-387
16298,19097616,52,-1998,73,1234,423,-407
16299,19097626,59,-1957,33,1127,369,-451
16300,19097636,89,-1919,35,1132,297,-465
16301,19097646,167,-1864,37,1180,231,-512
16302,19097643,168,-1865,38,1180,231,-458
16303,19097653,194,-1841,30,1237,133,-423
16304,19097663,172,-1835,17,1317,16,-343
16305,19097673,212,-1855,40,1420,-95,-257
16306,19097683,214,-1856,33,1488,-205,-172
16307,19097693,181,-1930,13,1534,-288,-108
16308,19097703,177,-1970,5,1534,-353,-50
16309,19097713,171,-1998,-85,1442,-385,-28
16310,19097723,121,-2051,-139,1358,-341,-40
16311,19097733,66,-2057,-247,1291,-236,-86
16312,19097743,75,-2072,-288,1262,-60,-139
16313,19097753,113,-2077,-216,1312,125,-196
16314,19097763,102,-2049,-144,1312,224,-224
16315,19097773,107,-2026,-104,1310,228,-204
16316,19097783,135,-1979,-86,1294,189,-184
16317,19097793,124,-1951,-22,1338,177,-162
16318,19097803,78,-1987,14,1387,175,-138
16319,19097813,64,-2009,29,1382,168,-107
16320,19097823,48,-2055,36,1344,140,-106
16321,19097833,-23,-2102,29,1269,122,-122
16322,19097843,-50,-2108,-7,1144,105,-138
16323,19097853,-21,-2044,-88,1022,128,-204
16324,19097863,27,-2011,-65,1033,272,-301
16325,19097873,52,-1945,-37,1080,352,-328
16326,19097883,108,-1878,-19,1082,349,-320
16327,19097893,157,-1852,-6,1154,334,-512
16328,19097889,158,-1853,-6,1154,333,-269
16329,19097899,160,-1839,17,1271,339,-226
16330,19097909,193,-1827,46,1376,317,-175
16331,19097919,238,-1828,35,1402,233,-104
16332,19097929,205,-1791,-28,1349,126,-12
16333,19097939,148,-1836,-89,1325,73,84
16334,19097949,140,-1853,-130,1304,103,127
16335,19097959,173,-1851,-109,1320,136,136
16336,19097969,133,-1885,-92,1345,223,132
16337,19097979,110,-1919,-62,1347,315,139
16338,19097989,153,-1961,0,1308,398,149
16339,19097999,149,-2002,11,1215,455,193
16340,19098009,111,-2057,1,1105,445,265
16341,19098019,100,-2087,-27,995,413,323
16342,19098029,95,-2098,-75,918,380,361
16343,19098039,31,-2100,-106,911,353,385
16344,19098049,-26,-2107,-136,991,344,402
16345,19098059,-11,-2110,-76,1194,433,361
16346,19098069,-22,-2117,22,1399,570,294
16347,19098079,-50,-2117,120,1504,715,254
16348,19098089,-6,-2136,203,1497,780,242
16349,19098099,1,-2127,228,1407,786,244
16350,19098109,-14,-2135,217,1285,757,240
16351,19098119,-33,-2117,229,1186,696,258
16352,19098129,-29,-2112,243,1122,627,296
16353,19098139,-48,-2148,285,1091,577,256
16354,19098136,-48,-2148,285,1092,577,357
16355,19098146,-118,-2179,293,1072,542,394
16356,19098156,-115,-2159,312,1039,503,374
16357,19098166,-106,-2157,332,1058,525,332
16358,19098176,-141,-2129,363,1089,552,301
16359,19098186,-132,-2104,422,1124,594,271
16360,19098196,-106,-2088,468,1141,594,283
16361,19098206,-122,-2076,470,1107,523,326
16362,19098216,-161,-2080,460,1077,442,360
16363,19098226,-171,-2041,398,1079,365,365
16364,19098236,-177,-2044,380,1144,346,359
16365,19098246,-216,-2063,357,1202,331,369
16366,19098256,-267,-2040,270,1233,304,354
16367,19098266,-223,-2045,302,1348,399,280
16368,19098276,-224,-2018,375,1437,507,221
16369,19098286,-239,-1991,413,1441,514,204
16370,19098296,-214,-1978,493,1442,516,213
16371,19098306,-170,-1982,527,1359,469,233
16372,19098316,-239,-1983,562,1233,370,257
16373,19098326,-242,-1989,563,1062,286,282
16374,19098336,-202,-1953,553,898,199,305
16375,19098346,-236,-1928,521,768,76,318
16376,19098356,-269,-1944,466,662,-79,355
16377,19098366,-314,-1953,369,644,-175,381
16378,19098376,-288,-1996,343,765,-171,327
16379,19098386,-332,-1964,356,856,-177,256
16380,19098383,-332,-1965,356,857,-177,278
16381,19098393,-285,-1936,409,976,-129,207
16382,19098403,-219,-1886,441,1017,-117,175
16383,19098413,-236,-1862,439,981,-142,226
16384,19098423,-264,-1842,456,930,-143,262
16385,19098433,-241,-1836,489,937,-147,289
16386,19098443,-230,-1833,459,926,-198,341
16387,19098453,-252,-1836,449,923,-254,401
16388,19098463,-255,-1852,416,938,-308,440
16389,19098473,-254,-1863,417,949,-338,485
16390,19098483,-273,-1909,407,937,-403,531
16391,19098493,-325,-1932,378,904,-478,537
16392,19098503,-330,-1928,372,889,-501,519
16393,19098513,-313,-1895,390,902,-491,497
16394,19098523,-313,-1873,400,880,-483,493
16395,19098533,-327,-1850,391,844,-498,519
16396,19098543,-305,-1851,319,806,-526,555
16397,19098553,-297,-1827,321,835,-508,555
16398,19098563,-294,-1824,299,882,-498,543
16399,19098573,-285,-1807,288,868,-540,584
16400,19098583,-274,-1804,231,862,-558,634
16401,19098593,-316,-1800,223,875,-560,676
16402,19098603,-322,-1773,207,893,-568,692
16403,19098613,-270,-1733,188,909,-582,726
16404,19098623,-334,-1724,206,929,-597,788
16405,19098633,-405,-1731,191,930,-594,768
16406,19098629,-405,-1732,191,931,-594,874
16407,19098639,-441,-1745,168,963,-567,918
16408,19098649,-492,-1734,125,1004,-507,898
16409,19098659,-514,-1752,187,1114,-357,885
16410,19098669,-585,-1793,224,1167,-297,950
16411,19098679,-633,-1853,263,1190,-291,1053
16412,19098689,-725,-1913,282,1204,-300,1094
16413,19098699,-792,-1947,306,1188,-312,1084
16414,19098709,-828,-1926,308,1130,-334,1028
16415,19098719,-826,-1865,334,1033,-359,977
16416,19098729,-841,-1818,374,959,-364,957
16417,19098739,-825,-1728,398,843,-399,984
16418,19098749,-793,-1690,393,658,-465,994
16419,19098759,-833,-1590,330,577,-499,1010
16420,19098769,-782,-1483,386,493,-458,914
16421,19098779,-801,-1358,280,577,-430,881
16422,19098789,-816,-1248,302,534,-367,845
16423,19098799,-875,-1251,305,626,-345,927
16424,19098809,-996,-1297,288,516,-367,1086
16425,19098819,-1063,-1347,303,292,-343,1202
16426,19098829,-1167,-1444,286,80,-272,1272
16427,19098839,-1253,-1488,248,-158,-317,1367
16428,19098849,-1224,-1428,147,-342,-503,1358
16429,19098859,-1158,-1269,38,-431,-742,1325
16430,19098869,-1145,-1055,-116,-376,-1020,1395
16431,19098879,-1132,-804,-258,-130,-1372,1281
16432,19098876,-1131,-805,-257,-130,-1372,1518
16433,19098886,-1156,-601,-376,316,-1638,1715
16434,19098896,-1266,-516,-431,819,-1657,1994
16435,19098906,-1550,-584,-363,1283,-1459,2316
16436,19098916,-1821,-885,-229,1581,-968,2739
16437,19098926,-2054,-1237,-4,1696,-337,3130
16438,19098936,-2266,-1620,195,1658,264,3275
16439,19098946,-2337,-1845,196,1426,473,3061
16440,19098956,-2307,-1784,-58,938,307,2692
16441,19098966,-2307,-1643,-323,553,-2,2388
16442,19098976,-2252,-1337,-532,321,-244,2114
16443,19098986,-2119,-941,-692,242,-247,1840
16444,19098996,-2126,-785,-709,455,-13,1936
16445,19099006,-2333,-892,-512,792,474,2355
16446,19099016,-2592,-1126,-310,1116,1122,2922
16447,19099026,-2738,-1381,-26,1593,1576,3395
16448,19099036,-2747,-1422,152,1924,1745,3251
16449,19099046,-2782,-1437,139,2046,1728,3004
16450,19099056,-2848,-1419,29,2189,1556,2942
16451,19099066,-2820,-1327,-13,2317,1205,2800
16452,19099076,-2713,-1199,-16,2334,1010,2553
16453,19099086,-2655,-1067,5,2207,914,2451
16454,19099096,-2601,-1006,18,2160,902,2434
16455,19099106,-2565,-938,12,2036,880,2409
16456,19099116,-2584,-890,-78,1850,809,2373
16457,19099126,-2596,-829,-213,1700,798,2305
16458,19099123,-2595,-829,-213,1700,798,2331
16459,19099133,-2524,-751,-271,1674,1041,2181
16460,19099143,-2445,-692,-238,1772,1378,2002
16461,19099153,-2421,-623,-231,1687,1628,1879
16462,19099163,-2496,-533,-300,1491,1772,1764
16463,19099173,-2707,-486,-355,1353,1782,1693
16464,19099183,-2793,-380,-381,1232,1646,1547
16465,19099193,-2802,-334,-520,1019,1362,1478
16466,19099203,-2847,-208,-610,956,891,1675
16467,19099213,-2813,-226,-545,1272,583,1839
16468,19099223,-2781,-223,-381,1630,517,1946
16469,19099233,-2679,-222,-279,1876,483,1886
16470,19099243,-2757,-210,-197,1953,463,1837
16471,19099253,-2797,-222,-193,1924,453,1763
16472,19099263,-2757,-240,-217,1934,582,1638
16473,19099273,-2631,-363,-85,2213,876,1505
16474,19099283,-2546,-415,37,2321,903,1370
16475,19099293,-2412,-529,55,2157,750,1277
16476,19099303,-2333,-520,44,1894,513,1093
16477,19099313,-2225,-544,35,1741,343,921
16478,19099323,-2189,-566,34,1554,239,733
16479,19099333,-2130,-533,-18,1247,149,602
16480,19099343,-2014,-470,-58,924,92,424
16481,19099353,-2024,-432,-125,665,30,276
16482,19099363,-1989,-335,-258,455,-70,172
16483,19099373,-1877,-290,-349,357,-61,0
16484,19099370,-1877,-291,-349,358,-61,62
16485,19099380,-1839,-317,-403,434,24,10
16486,19099390,-1829,-322,-434,512,94,-43
16487,19099400,-1776,-335,-432,568,146,-91
16488,19099410,-1747,-341,-427,624,161,-116
16489,19099420,-1719,-386,-385,682,190,-181
16490,19099430,-1680,-456,-413,716,161,-224
16491,19099440,-1603,-458,-481,708,84,-272
16492,19099450,-1606,-463,-558,730,-18,-337
16493,19099460,-1659,-407,-657,767,-97,-386
16494,19099470,-1619,-340,-651,887,-62,-479
16495,19099480,-1540,-305,-580,1073,34,-564
16496,19099490,-1558,-261,-556,1143,56,-610
16497,19099500,-1599,-203,-596,1180,95,-642
16498,19099510,-1570,-198,-526,1353,226,-671
16499,19099520,-1568,-167,-452,1455,262,-700
16500,19099530,-1578,-150,-373,1498,260,-702
16501,19099540,-1590,-135,-332,1503,165,-660
16502,19099550,-1604,-138,-322,1469,72,-582
16503,19099560,-1669,-182,-328,1463,38,-550
16504,19099570,-1663,-177,-319,1451,35,-562
16505,19099580,-1683,-207,-353,1411,-6,-539
16506,19099590,-1757,-225,-405,1365,-32,-506
16507,19099600,-1813,-245,-419,1366,-87,-480
16508,19099610,-1814,-224,-433,1343,-157,-479
16509,19099620,-1793,-194,-463,1253,-192,-512
16510,19099616,-1793,-195,-462,1253,-193,-475
16511,19099626,-1812,-161,-473,1143,-184,-467
16512,19099636,-1805,-94,-452,1077,-158,-464
16513,19099646,-1769,-37,-451,1035,-132,-449
16514,19099656,-1747,-21,-476,999,-120,-398
16515,19099666,-1791,-44,-501,1015,-93,-335
16516,19099676,-1762,-62,-501,1028,-50,-285
16517,19099686,-1780,-71,-493,1045,-23,-246
16518,19099696,-1853,-99,-521,1074,1,-183
16519,19099706,-1918,-131,-523,1095,38,-145
16520,19099716,-1975,-165,-565,1095,55,-137
16521,19099726,-2004,-191,-560,1111,107,-145
16522,19099736,-2013,-241,-543,1159,138,-173
16523,19099746,-2009,-236,-567,1155,111,-193
16524,19099756,-1981,-271,-568,1208,93,-189
16525,19099766,-1997,-322,-585,1277,94,-204
16526,19099776,-1991,-316,-583,1281,77,-236
16527,19099786,-1923,-342,-565,1333,86,-275
16528,19099796,-1897,-359,-527,1372,89,-311
16529,19099806,-1880,-356,-532,1355,28,-327
16530,19099816,-1837,-375,-537,1286,-49,-337
16531,19099826,-1812,-422,-579,1192,-103,-342
16532,19099836,-1823,-435,-659,1088,-129,-393
16533,19099846,-1887,-463,-738,1007,-115,-477
16534,19099856,-1940,-414,-867,949,-121,-497
16535,19099866,-1987,-366,-953,929,-150,-768
16536,19099863,-1987,-366,-953,930,-151,-525
16537,19099873,-2036,-325,-982,964,-163,-485
16538,19099883,-2001,-302,-1013,971,-167,-406
16539,19099893,-1939,-333,-1024,970,-102,-329
16540,19099903,-1897,-340,-907,1042,33,-280
16541,19099913,-1740,-426,-757,1243,143,-260
16542,19099923,-1604,-461,-696,1296,152,-238
16543,19099933,-1547,-505,-663,1305,77,-192
16544,19099943,-1536,-550,-694,1336,-1,-152
16545,19099953,-1543,-586,-784,1379,-24,-167
16546,19099963,-1552,-571,-824,1446,22,-197
16547,19099973,-1614,-543,-804,1543,44,-232
16548,19099983,-1679,-503,-733,1575,14,-268
16549,19099993,-1732,-427,-697,1490,-5,-314
16550,19100003,-1805,-357,-644,1346,-20,-352
16551,19100013,-1897,-294,-598,1205,-21,-353
16552,19100023,-1925,-242,-547,1056,-14,-380
16553,19100033,-1917,-201,-546,894,-31,-376
16554,19100043,-1922,-162,-594,747,-79,-395
16555,19100053,-1913,-131,-708,680,-107,-417
16556,19100063,-1889,-121,-766,736,-138,-393
16557,19100073,-1900,-148,-824,855,-196,-328
16558,19100083,-1936,-188,-880,962,-227,-291
16559,19100093,-1917,-197,-876,1060,-223,-273
16560,19100103,-1907,-206,-863,1153,-169,-278
16561,19100113,-1879,-219,-798,1219,-101,-512
16562,19100110,-1879,-220,-798,1219,-101,-278
16563,19100120,-1824,-207,-759,1257,-92,-285
16564,19100130,-1775,-218,-734,1315,-124,-256
16565,19100140,-1767,-240,-737,1374,-149,-232
16566,19100150,-1764,-263,-737,1453,-130,-227
16567,19100160,-1703,-283,-667,1551,-99,-238
16568,19100170,-1681,-313,-619,1572,-138,-223
16569,19100180,-1725,-378,-651,1495,-200,-177
16570,19100190,-1674,-430,-661,1403,-201,-203
16571,19100200,-1626,-445,-652,1344,-217,-230
16572,19100210,-1618,-465,-648,1243,-254,-222
16573,19100220,-1627,-468,-668,1101,-296,-226
16574,19100230,-1612,-444,-707,971,-347,-234
16575,19100240,-1580,-436,-708,852,-342,-227
16576,19100250,-1628,-429,-722,733,-337,-192
16577,19100260,-1642,-468,-795,595,-322,-162
16578,19100270,-1613,-467,-835,533,-266,-164
16579,19100280,-1637,-500,-858,513,-221,-139
16580,19100290,-1691,-505,-923,470,-203,-100
16581,19100300,-1683,-498,-911,530,-184,-80
16582,19100310,-1685,-491,-901,596,-125,-71
16583,19100320,-1736,-487,-831,667,-109,-26
16584,19100330,-1738,-498,-767,714,-92,29
16585,19100340,-1708,-525,-727,751,-104,81
16586,19100350,-1743,-564,-675,745,-162,128
16587,19100360,-1757,-594,-676,723,-212,0
16588,19100356,-1757,-594,-676,724,-213,141
16589,19100366,-1790,-620,-746,682,-262,132
16590,19100376,-1777,-623,-815,648,-282,109
16591,19100386,-1817,-654,-819,640,-238,63
16592,19100396,-1761,-639,-815,624,-198,25
16593,19100406,-1703,-623,-796,577,-211,-2
16594,19100416,-1692,-601,-793,523,-241,7
16595,19100426,-1720,-582,-809,507,-266,23
16596,19100436,-1661,-544,-772,508,-266,9
16597,19100446,-1618,-518,-740,500,-279,13
16598,19100456,-1675,-507,-724,466,-316,35
16599,19100466,-1686,-500,-748,425,-359,51
16600,19100476,-1661,-475,-809,381,-403,44
16601,19100486,-1680,-474,-862,357,-449,52
16602,19100496,-1735,-476,-895,382,-479,80
16603,19100506,-1731,-472,-946,417,-472,83
16604,19100516,-1712,-507,-935,473,-411,89
16605,19100526,-1729,-506,-855,514,-352,66
16606,19100536,-1714,-475,-830,524,-329,32
16607,19100546,-1706,-438,-822,551,-297,9
16608,19100556,-1658,-418,-742,638,-238,-30
16609,19100566,-1677,-398,-722,610,-287,-24
16610,19100576,-1660,-390,-726,527,-367,6
16611,19100586,-1659,-383,-736,493,-420,32
16612,19100596,-1706,-395,-730,469,-465,49
16613,19100606,-1713,-403,-734,439,-510,0
16614,19100603,-1713,-403,-734,439,-510,64
16615,19100613,-1707,-386,-716,401,-540,59
16616,19100623,-1708,-387,-677,390,-528,49
16617,19100633,-1725,-387,-638,370,-524,55
16618,19100643,-1700,-306,-576,308,-554,29
16619,19100653,-1702,-250,-551,231,-599,36
16620,19100663,-1763,-206,-513,158,-649,69
16621,19100673,-1824,-155,-510,63,-669,102
16622,19100683,-1990,-87,-540,-37,-684,157
16623,19100693,-2270,-45,-614,-133,-711,237
16624,19100703,-2492,-57,-730,-270,-741,299
16625,19100713,-2526,-114,-860,-466,-756,341
16626,19100723,-2414,-214,-955,-664,-759,366
16627,19100733,-2323,-372,-979,-607,-710,369
16628,19100743,-2208,-467,-919,-360,-694,351
16629,19100753,-2042,-472,-785,-76,-661,241
16630,19100763,-1940,-461,-605,250,-632,181
16631,19100773,-1938,-462,-483,460,-712,169
16632,19100783,-1938,-358,-372,498,-772,25
16633,19100793,-1926,-297,-325,591,-768,-123
16634,19100803,-1998,-229,-307,611,-771,-240
16635,19100813,-2029,-177,-352,493,-794,-345
16636,19100823,-2065,-113,-421,315,-811,-387
16637,19100833,-2135,-65,-502,105,-819,-408
16638,19100843,-2190,-4,-616,-97,-792,-431
16639,19100853,-2195,27,-700,-233,-747,-512
16640,19100850,-2195,27,-700,-233,-748,-411
16641,19100860,-2174,47,-764,-258,-666,-377
16642,19100870,-2198,70,-742,-174,-589,-340
16643,19100880,-2188,51,-683,23,-480,-310
16644,19100890,-2161,50,-610,226,-405,-260
16645,19100900,-2170,52,-553,419,-377,-230
16646,19100910,-2196,77,-490,629,-345,-211
16647,19100920,-2160,78,-383,869,-305,-201
16648,19100930,-2092,79,-297,1034,-280,-186
16649,19100940,-2087,78,-208,1094,-311,-155
16650,19100950,-2070,49,-140,1102,-349,-130
16651,19100960,-2039,38,-103,1073,-364,-135
16652,19100970,-2023,33,-49,1028,-362,-164
16653,19100980,-2049,26,-88,939,-416,-182
16654,19100990,-2022,20,-76,839,-428,-227
16655,19101000,-2010,39,-123,752,-444,-240
16656,19101010,-2051,50,-148,648,-470,-263
16657,19101020,-2065,37,-198,586,-471,-274
16658,19101030,-2055,46,-238,524,-457,-297
16659,19101040,-2056,54,-279,474,-413,-322
16660,19101050,-2079,56,-319,423,-391,-339
16661,19101060,-2040,59,-383,414,-404,-330
16662,19101070,-2014,52,-424,472,-403,-333
16663,19101080,-2040,70,-441,560,-358,-341
16664,19101090,-2032,58,-418,690,-311,-329
16665,19101100,-2036,75,-418,777,-274,-512
16666,19101096,-2036,75,-418,778,-274,-324
16667,19101106,-2068,104,-417,792,-249,-308
16668,19101116,-2087,95,-430,813,-217,-300
16669,19101126,-2106,97,-422,803,-176,-274
16670,19101136,-2156,102,-446,796,-146,-236
16671,19101146,-2180,85,-481,795,-115,-236
16672,19101156,-2138,65,-474,854,-104,-230
16673,19101166,-2127,-13,-465,949,-95,-172
16674,19101176,-2127,-54,-456,988,-67,-149
16675,19101186,-2122,-77,-411,1023,-22,-167
16676,19101196,-2069,-75,-357,1025,23,-181
16677,19101206,-2026,-74,-312,986,47,-198
16678,19101216,-2020,-97,-316,903,24,-205
16679,19101226,-2033,-109,-318,799,7,-208
16680,19101236,-1959,-172,-316,768,15,-211
16681,19101246,-1967,-174,-365,698,-21,-225
16682,19101256,-1987,-178,-404,644,-74,-238
16683,19101266,-1956,-167,-423,646,-104,-244
16684,19101276,-1964,-199,-469,669,-119,-246
16685,19101286,-2012,-184,-494,675,-158,-256
16686,19101296,-2004,-176,-492,693,-140,-298
16687,19101306,-1970,-177,-490,712,-98,-322
16688,19101316,-1988,-147,-493,701,-84,-335
16689,19101326,-2017,-123,-499,679,-35,-354
16690,19101336,-1985,-103,-477,696,8,-371
16691,19101346,-1941,-90,-502,694,19,-512
16692,19101343,-1941,-90,-502,695,18,-366
16693,19101353,-1987,-109,-507,727,40,-361
16694,19101363,-1967,-98,-463,802,75,-367
16695,19101373,-1936,-102,-433,843,88,-365
16696,19101383,-1908,-108,-397,866,84,-355
16697,19101393,-1949,-107,-382,896,72,-348
16698,19101403,-1930,-102,-379,914,56,-339
16699,19101413,-1894,-106,-361,916,42,-329
16700,19101423,-1933,-126,-348,910,16,-310
16701,19101433,-1968,-145,-341,897,-17,-291
16702,19101443,-1986,-111,-348,892,-43,-280
16703,19101453,-2046,-89,-364,871,-65,-266
16704,19101463,-2088,-93,-387,858,-62,-257
16705,19101473,-2122,-94,-378,849,-9,-250
16706,19101483,-2122,-109,-344,836,42,-238
16707,19101493,-2141,-128,-309,824,59,-224
16708,19101503,-2130,-147,-285,773,68,-220
16709,19101513,-2066,-167,-261,740,65,-210
16710,19101523,-2022,-177,-221,722,47,-204
16711,19101533,-2036,-229,-213,722,7,-190
16712,19101543,-1985,-281,-203,730,-19,-190
16713,19101553,-1889,-329,-184,760,-46,-226
16714,19101563,-1851,-357,-165,769,-111,-253
16715,19101573,-1835,-372,-159,734,-205,-272
16716,19101583,-1768,-388,-148,663,-293,-272
16717,19101593,-1748,-397,-143,557,-379,-512
