sequence,timestamp_ms,accel_x,accel_y,accel_z,gyro_x,gyro_y,gyro_z
16718,19101590,-1748,-398,-143,557,-380,-273
16719,19101600,-1761,-425,-159,441,-457,-283
16720,19101610,-1730,-420,-175,317,-504,-305
16721,19101620,-1717,-402,-191,202,-553,-332
16722,19101630,-1784,-376,-224,79,-624,-345
16723,19101640,-1846,-352,-262,-48,-678,-341
16724,19101650,-1920,-314,-324,-175,-712,-329
16725,19101660,-2039,-283,-407,-334,-738,-310
16726,19101670,-2164,-284,-470,-496,-753,-284
16727,19101680,-2186,-293,-561,-666,-760,-271
16728,19101690,-2193,-314,-629,-813,-738,-268
16729,19101700,-2202,-351,-688,-922,-720,-253
16730,19101710,-2142,-390,-691,-1001,-686,-243
16731,19101720,-2041,-437,-694,-1053,-658,-221
16732,19101730,-1989,-466,-669,-1056,-636,-213
16733,19101740,-1947,-468,-670,-1021,-592,-236
16734,19101750,-1867,-463,-609,-937,-521,-274
16735,19101760,-1783,-470,-512,-802,-499,-289
16736,19101770,-1775,-464,-429,-756,-518,-295
16737,19101780,-1753,-452,-387,-767,-565,-298
16738,19101790,-1718,-410,-382,-810,-612,-301
16739,19101800,-1739,-374,-386,-880,-648,-307
16740,19101810,-1789,-322,-427,-944,-666,-313
16741,19101820,-1800,-266,-427,-986,-685,-297
16742,19101830,-1796,-210,-456,-1012,-702,-276
16743,19101840,-1856,-184,-450,-1003,-699,-256
16744,19101836,-1856,-185,-450,-1003,-699,-244
16745,19101846,-1914,-182,-431,-982,-697,-199
16746,19101856,-1936,-177,-426,-968,-698,-163
16747,19101866,-1975,-186,-429,-973,-671,-154
16748,19101876,-2015,-179,-383,-956,-601,-160
16749,19101886,-2006,-200,-338,-918,-546,-171
16750,19101896,-1979,-176,-277,-918,-513,-192
16751,19101906,-1995,-194,-223,-937,-512,-213
16752,19101916,-1969,-183,-176,-969,-514,-247
16753,19101926,-1911,-132,-160,-1001,-527,-282
16754,19101936,-1864,-90,-164,-1034,-571,-333
16755,19101946,-1836,-14,-137,-1057,-605,-370
16756,19101956,-1847,48,-91,-1070,-629,-374
16757,19101966,-1811,87,-58,-1080,-662,-347
16758,19101976,-1857,139,-66,-1156,-706,-340
16759,19101986,-1924,194,-56,-1220,-735,-321
16760,19101996,-1967,222,-69,-1246,-777,-287
16761,19102006,-2048,238,-118,-1318,-830,-250
16762,19102016,-2151,226,-188,-1389,-843,-224
16763,19102026,-2165,275,-254,-1467,-827,-229
16764,19102036,-2177,243,-269,-1489,-784,-215
16765,19102046,-2272,157,-276,-1554,-761,-135
16766,19102056,-2280,96,-302,-1669,-725,-121
16767,19102066,-2208,48,-303,-1702,-646,-159
16768,19102076,-2166,17,-292,-1656,-592,-173
16769,19102086,-2162,-26,-279,-1552,-568,-256
16770,19102083,-2162,-26,-279,-1552,-569,-189
16771,19102093,-2108,-56,-250,-1418,-573,-220
16772,19102103,-2059,-76,-261,-1257,-612,-262
16773,19102113,-2077,-101,-251,-1102,-658,-302
16774,19102123,-2052,-124,-263,-978,-673,-345
16775,19102133,-2018,-122,-242,-857,-660,-384
16776,19102143,-2002,-113,-235,-771,-664,-430
16777,19102153,-2082,-98,-261,-706,-676,-465
16778,19102163,-2104,-38,-325,-638,-668,-492
16779,19102173,-2147,-18,-344,-524,-617,-541
16780,19102183,-2201,17,-390,-380,-588,-583
16781,19102193,-2260,100,-410,-265,-575,-608
16782,19102203,-2271,141,-441,-112,-546,-620
16783,19102213,-2295,208,-446,68,-504,-614
16784,19102223,-2288,240,-437,232,-453,-598
16785,19102233,-2259,242,-402,376,-407,-543
16786,19102243,-2196,248,-371,484,-360,-472
16787,19102253,-2199,209,-308,583,-303,-400
16788,19102263,-2166,138,-242,683,-250,-327
16789,19102273,-2088,96,-199,729,-225,-291
16790,19102283,-2059,58,-129,763,-217,-272
16791,19102293,-2058,-1,-90,800,-201,-241
16792,19102303,-2017,-12,-54,801,-205,-229
16793,19102313,-1972,-53,-1,766,-207,-229
16794,19102323,-1979,-78,48,723,-213,-233
16795,19102333,-2000,-80,38,653,-244,-256
16796,19102330,-2000,-80,39,654,-245,-233
16797,19102340,-1949,-82,33,553,-289,-247
16798,19102350,-1949,-105,38,472,-334,-252
16799,19102360,-1973,-87,10,347,-374,-253
16800,19102370,-1930,-79,-29,207,-410,-253
16801,19102380,-1917,-58,-78,108,-420,-243
16802,19102390,-1915,-50,-109,57,-413,-228
16803,19102400,-1896,-30,-122,58,-388,-218
16804,19102410,-1861,-9,-132,80,-366,-204
16805,19102420,-1872,0,-135,132,-359,-175
16806,19102430,-1894,12,-136,174,-350,-143
16807,19102440,-1892,24,-136,199,-333,-121
16808,19102450,-1912,-27,-118,250,-313,-68
16809,19102460,-1960,-62,-100,287,-282,-17
16810,19102470,-2000,-84,-101,302,-265,-5
16811,19102480,-1986,-104,-113,332,-263,12
16812,19102490,-2021,-130,-148,348,-247,31
16813,19102500,-2053,-135,-158,385,-224,40
16814,19102510,-2091,-140,-182,462,-194,42
16815,19102520,-2097,-164,-186,585,-143,32
16816,19102530,-2149,-179,-179,721,-104,5
16817,19102540,-2173,-199,-161,859,-103,-12
16818,19102550,-2160,-193,-152,994,-94,-39
16819,19102560,-2172,-196,-130,1118,-110,-84
16820,19102570,-2179,-179,-124,1244,-145,-120
16821,19102580,-2140,-154,-123,1376,-182,-256
16822,19102576,-2140,-154,-122,1376,-182,-159
16823,19102586,-2101,-116,-100,1515,-225,-190
16824,19102596,-2093,-102,-97,1652,-268,-210
16825,19102606,-2075,-82,-75,1753,-297,-210
16826,19102616,-2008,-59,-60,1830,-346,-205
16827,19102626,-2004,-70,-58,1867,-374,-192
16828,19102636,-1994,-64,-56,1869,-391,-175
16829,19102646,-1949,-59,-74,1848,-412,-155
16830,19102656,-1936,-77,-75,1800,-426,-122
16831,19102666,-1949,-81,-83,1731,-418,-96
16832,19102676,-1946,-62,-109,1656,-431,-65
16833,19102686,-1912,-40,-134,1599,-427,-31
16834,19102696,-1904,4,-170,1573,-415,8
16835,19102706,-1942,-14,-178,1614,-418,71
16836,19102716,-1968,-31,-197,1705,-432,150
16837,19102726,-1975,-55,-207,1835,-403,200
16838,19102736,-2013,-100,-186,1962,-367,212
16839,19102746,-2014,-109,-163,2040,-296,219
16840,19102756,-1973,-96,-123,2063,-212,225
16841,19102766,-1981,-114,-89,2048,-145,258
16842,19102776,-1997,-121,-85,2009,-77,288
16843,19102786,-2004,-132,-63,1979,-4,312
16844,19102796,-2012,-119,-83,1973,78,332
16845,19102806,-2050,-99,-51,1992,145,344
16846,19102816,-2062,-76,-47,2037,190,339
16847,19102826,-2057,-63,16,2121,236,256
16848,19102823,-2057,-63,17,2121,236,353
16849,19102833,-2106,-53,38,2195,290,352
16850,19102843,-2154,-18,89,2237,329,348
16851,19102853,-2184,11,89,2254,349,363
16852,19102863,-2236,45,80,2256,359,394
16853,19102873,-2337,43,83,2247,362,416
16854,19102883,-2389,54,73,2257,358,437
16855,19102893,-2355,3,74,2304,354,445
16856,19102903,-2347,-29,8,2364,338,435
16857,19102913,-2398,-75,-44,2468,248,416
16858,19102923,-2395,-148,-63,2643,205,391
16859,19102933,-2391,-203,-57,2814,219,339
16860,19102943,-2329,-229,26,2965,223,230
16861,19102953,-2284,-227,102,3032,233,130
16862,19102963,-2169,-210,182,2986,223,45
16863,19102973,-2099,-171,210,2862,191,-42
16864,19102983,-2064,-138,219,2732,132,-74
16865,19102993,-1998,-119,191,2580,52,-97
16866,19103003,-1944,-90,102,2459,-90,-140
16867,19103013,-1977,-40,-12,2382,-236,-166
16868,19103023,-1979,-94,-113,2350,-380,-167
16869,19103033,-2024,-81,-258,2323,-465,-175
16870,19103043,-2070,-97,-345,2291,-512,-194
16871,19103053,-2093,-114,-394,2276,-464,-246
16872,19103063,-2040,-70,-424,2212,-375,-285
16873,19103073,-1992,-40,-416,2131,-275,-512
16874,19103070,-1992,-41,-416,2131,-276,-315
16875,19103080,-1988,-17,-402,2092,-184,-323
16876,19103090,-1960,2,-376,2072,-99,-321
16877,19103100,-1900,26,-345,2076,-13,-317
16878,19103110,-1898,20,-314,2055,21,-285
16879,19103120,-1928,10,-279,2023,12,-239
16880,19103130,-1927,28,-255,1967,7,-210
16881,19103140,-1944,22,-232,1928,16,-183
16882,19103150,-1996,8,-234,1877,23,-156
16883,19103160,-2004,-31,-232,1796,8,-143
16884,19103170,-1990,-64,-248,1725,-26,-127
16885,19103180,-2016,-133,-276,1681,-47,-114
16886,19103190,-2032,-186,-272,1621,-85,-117
16887,19103200,-1980,-181,-247,1578,-54,-161
16888,19103210,-1961,-187,-238,1501,-1,-201
16889,19103220,-1973,-204,-245,1404,18,-230
16890,19103230,-1968,-205,-244,1287,32,-286
16891,19103240,-1954,-184,-227,1207,43,-324
16892,19103250,-1946,-163,-223,1140,33,-331
16893,19103260,-2000,-161,-270,1069,5,-322
16894,19103270,-1998,-155,-313,991,6,-314
16895,19103280,-1999,-150,-342,960,-15,-322
16896,19103290,-2021,-140,-367,914,-34,-329
16897,19103300,-2010,-116,-366,863,-36,-326
16898,19103310,-1962,-113,-364,821,-37,-293
16899,19103320,-1956,-126,-372,780,-42,-256
16900,19103316,-1956,-127,-372,781,-43,-256
16901,19103326,-1961,-151,-385,754,-66,-220
16902,19103336,-1922,-147,-413,745,-90,-195
16903,19103346,-1928,-147,-433,757,-113,-168
16904,19103356,-1974,-164,-442,771,-119,-138
16905,19103366,-1966,-158,-453,810,-121,-127
16906,19103376,-1942,-157,-455,865,-131,-106
16907,19103386,-1930,-172,-458,922,-152,-73
16908,19103396,-1954,-195,-450,1008,-189,-53
16909,19103406,-1929,-206,-426,1106,-169,-47
16910,19103416,-1890,-231,-383,1180,-116,-34
16911,19103426,-1878,-234,-328,1193,-101,-19
16912,19103436,-1864,-213,-317,1160,-107,-3
16913,19103446,-1836,-215,-294,1113,-114,40
16914,19103456,-1849,-216,-300,1068,-123,69
16915,19103466,-1915,-234,-334,1056,-147,107
16916,19103476,-1944,-238,-370,1068,-181,154
16917,19103486,-1977,-262,-397,1115,-209,184
16918,19103496,-2048,-319,-405,1178,-192,202
16919,19103506,-2093,-357,-381,1246,-182,183
16920,19103516,-2095,-382,-370,1254,-155,137
16921,19103526,-2121,-376,-334,1172,-96,79
16922,19103536,-2092,-348,-290,1061,-33,4
16923,19103546,-2045,-296,-293,900,11,-51
16924,19103556,-2032,-247,-320,764,-13,-76
16925,19103566,-2022,-209,-346,693,-40,-256
16926,19103563,-2022,-209,-345,694,-40,-96
16927,19103573,-2001,-168,-342,696,-56,-117
16928,19103583,-1968,-153,-372,774,-77,-118
16929,19103593,-1966,-132,-349,849,-121,-115
16930,19103603,-1975,-128,-351,904,-159,-108
16931,19103613,-1963,-95,-355,943,-182,-107
16932,19103623,-1921,-69,-368,968,-187,-108
16933,19103633,-1910,-54,-354,958,-172,-105
16934,19103643,-1916,-40,-346,932,-168,-82
16935,19103653,-1891,-39,-353,896,-182,-48
16936,19103663,-1935,-53,-378,847,-201,-11
16937,19103673,-2007,-57,-415,816,-213,22
16938,19103683,-2050,-64,-445,803,-202,34
16939,19103693,-2063,-64,-456,799,-146,34
16940,19103703,-2082,-96,-421,814,-92,41
16941,19103713,-2093,-99,-405,813,-82,45
16942,19103723,-2082,-108,-440,794,-95,54
16943,19103733,-2092,-121,-442,808,-87,38
16944,19103743,-2103,-159,-426,882,-52,18
16945,19103753,-2040,-171,-399,947,-44,12
16946,19103763,-1991,-177,-372,1005,-43,2
16947,19103773,-2012,-175,-363,1061,-61,-3
16948,19103783,-2018,-172,-341,1098,-79,-12
16949,19103793,-1964,-155,-306,1125,-68,-16
16950,19103803,-1964,-178,-283,1177,-55,-16
16951,19103813,-1987,-175,-262,1168,-76,-256
16952,19103810,-1987,-176,-262,1168,-77,-10
16953,19103820,-1983,-190,-262,1155,-103,-9
16954,19103830,-1953,-179,-233,1145,-110,-25
16955,19103840,-1976,-179,-225,1151,-108,-43
16956,19103850,-1992,-174,-215,1132,-130,-43
16957,19103860,-1959,-170,-218,1112,-147,-57
16958,19103870,-1994,-152,-213,1098,-174,-48
16959,19103880,-2020,-166,-239,1085,-199,-56
16960,19103890,-2024,-163,-262,1067,-200,-72
16961,19103900,-2011,-145,-265,1057,-194,-85
16962,19103910,-2051,-139,-303,1029,-199,-97
16963,19103920,-2058,-134,-307,1018,-188,-107
16964,19103930,-2036,-146,-319,1019,-182,-106
16965,19103940,-2035,-156,-342,1009,-186,-118
16966,19103950,-2037,-156,-320,1005,-182,-134
16967,19103960,-2000,-156,-343,1004,-196,-132
16968,19103970,-1987,-148,-338,998,-217,-137
16969,19103980,-1998,-140,-365,994,-233,-140
16970,19103990,-2018,-155,-378,1014,-243,-127
16971,19104000,-2005,-125,-408,1034,-245,-120
16972,19104010,-2048,-121,-444,1080,-235,-108
16973,19104020,-2057,-162,-423,1167,-170,-114
16974,19104030,-2027,-181,-381,1251,-129,-115
16975,19104040,-2009,-181,-370,1243,-151,-111
16976,19104050,-2019,-200,-366,1220,-173,-106
16977,19104060,-1997,-193,-358,1222,-159,-256
16978,19104056,-1997,-194,-358,1222,-159,-104
16979,19104066,-1970,-178,-334,1220,-152,-101
16980,19104076,-1975,-159,-347,1191,-167,-92
16981,19104086,-1999,-180,-328,1169,-181,-81
16982,19104096,-1999,-181,-337,1148,-179,-68
16983,19104106,-1966,-167,-318,1135,-167,-59
16984,19104116,-1982,-171,-298,1119,-160,-52
16985,19104126,-1970,-189,-280,1081,-168,-43
16986,19104136,-1956,-166,-294,1036,-181,-29
16987,19104146,-1974,-159,-300,1021,-164,-35
16988,19104156,-2016,-189,-288,1056,-146,-26
16989,19104166,-1998,-181,-297,1058,-168,-15
16990,19104176,-2003,-177,-322,1043,-184,-19
16991,19104186,-2010,-188,-284,1073,-152,-28
16992,19104196,-2000,-202,-253,1095,-143,-39
16993,19104206,-1991,-179,-281,1059,-175,-39
16994,19104216,-2001,-177,-284,1046,-193,-45
16995,19104226,-2031,-178,-287,1074,-195,-53
16996,19104236,-2031,-166,-325,1101,-201,-60
16997,19104246,-2021,-172,-351,1131,-199,-62
16998,19104256,-2048,-168,-375,1160,-199,-64
16999,19104266,-2050,-164,-380,1188,-174,-82
17000,19104276,-2016,-180,-390,1204,-161,-74
17001,19104286,-2029,-183,-392,1192,-169,-67
17002,19104296,-2054,-176,-421,1171,-189,-70
17003,19104306,-2040,-181,-438,1169,-202,-256
17004,19104303,-2040,-182,-438,1169,-202,-65
17005,19104313,-2018,-170,-418,1179,-181,-65
17006,19104323,-2022,-187,-395,1197,-164,-69
17007,19104333,-2025,-192,-385,1199,-163,-69
17008,19104343,-1987,-174,-376,1188,-162,-75
17009,19104353,-1984,-161,-362,1185,-151,-80
17010,19104363,-2011,-184,-372,1187,-157,-77
17011,19104373,-1999,-169,-375,1185,-149,-74
17012,19104383,-1979,-158,-403,1191,-127,-97
17013,19104393,-1995,-131,-408,1212,-85,-115
17014,19104403,-1998,-149,-393,1256,-41,-109
17015,19104413,-1955,-124,-367,1277,-15,-109
17016,19104423,-1966,-133,-373,1276,-16,-103
17017,19104433,-2003,-112,-395,1270,-37,-86
17018,19104443,-1994,-117,-383,1280,-44,-76
17019,19104453,-1977,-109,-412,1295,-42,-61
17020,19104463,-1997,-115,-393,1322,-27,-51
17021,19104473,-2015,-121,-369,1352,-2,-43
17022,19104483,-1957,-122,-360,1349,-9,-33
17023,19104493,-1973,-122,-357,1307,-38,-24
17024,19104503,-1989,-140,-349,1272,-66,-10
17025,19104513,-1976,-148,-366,1239,-84,2
17026,19104523,-1967,-159,-347,1211,-93,5
17027,19104533,-1985,-168,-337,1186,-113,9
17028,19104543,-1998,-176,-346,1134,-142,13
17029,19104553,-1964,-153,-356,1094,-166,0
17030,19104550,-1964,-153,-355,1095,-166,13
17031,19104560,-1962,-162,-363,1069,-165,18
17032,19104570,-1984,-164,-354,1053,-157,28
17033,19104580,-1982,-172,-385,1044,-160,35
17034,19104590,-1970,-172,-409,1050,-150,37
17035,19104600,-1985,-184,-383,1100,-94,38
17036,19104610,-1996,-183,-371,1117,-88,62
17037,19104620,-1979,-180,-385,1087,-105,79
17038,19104630,-1983,-211,-383,1078,-97,85
17039,19104640,-2003,-229,-374,1074,-83,80
17040,19104650,-1965,-259,-382,1083,-74,58
17041,19104660,-1965,-211,-415,1032,-71,45
17042,19104670,-1991,-250,-384,1032,-78,34
17043,19104680,-1993,-295,-356,1147,-67,64
17044,19104690,-1982,-308,-329,1188,-111,48
17045,19104700,-1985,-294,-333,1137,-147,2
17046,19104710,-2002,-276,-332,1090,-164,-25
17047,19104720,-1979,-254,-335,1051,-179,-41
17048,19104730,-1953,-229,-352,991,-202,-59
17049,19104740,-1966,-229,-349,989,-207,-71
17050,19104750,-1958,-209,-352,1009,-225,-76
17051,19104760,-1923,-212,-367,999,-257,-81
17052,19104770,-1933,-224,-389,1001,-277,-92
17053,19104780,-1958,-230,-386,963,-286,-113
17054,19104790,-1949,-187,-385,868,-288,-148
17055,19104800,-1935,-144,-382,837,-295,-256
17056,19104796,-1935,-145,-382,838,-296,-160
17057,19104806,-1949,-131,-372,887,-304,-133
17058,19104816,-1983,-139,-399,911,-319,-95
17059,19104826,-1986,-128,-381,900,-329,-78
17060,19104836,-2007,-123,-401,866,-328,-76
17061,19104846,-2064,-179,-411,823,-305,-81
17062,19104856,-2055,-211,-442,781,-280,-69
17063,19104866,-2042,-194,-465,699,-291,-120
17064,19104876,-2061,-214,-461,747,-271,-162
17065,19104886,-2047,-190,-476,777,-266,-159
17066,19104896,-1994,-165,-483,832,-280,-161
17067,19104906,-1991,-202,-507,894,-319,-131
17068,19104916,-2026,-218,-529,928,-348,-115
17069,19104926,-1999,-215,-569,941,-358,-127
17070,19104936,-1978,-227,-582,971,-320,-150
17071,19104946,-2010,-249,-592,963,-267,-183
17072,19104956,-1991,-241,-569,958,-176,-218
17073,19104966,-1932,-226,-523,994,-105,-256
17074,19104976,-1928,-192,-495,987,-109,-262
17075,19104986,-1949,-163,-482,966,-151,-252
17076,19104996,-1908,-171,-461,996,-173,-219
17077,19105006,-1907,-167,-434,1071,-187,-176
17078,19105016,-1921,-170,-391,1084,-208,-156
17079,19105026,-1924,-193,-384,1061,-218,-130
17080,19105036,-1905,-184,-386,1028,-229,-106
17081,19105046,-1904,-176,-402,986,-224,-256
17082,19105043,-1904,-176,-402,987,-225,-110
17083,19105053,-1926,-177,-407,934,-238,-105
17084,19105063,-1905,-171,-421,928,-261,-84
17085,19105073,-1905,-205,-411,990,-236,-59
17086,19105083,-1941,-208,-412,976,-220,-47
17087,19105093,-1936,-212,-389,945,-212,-41
17088,19105103,-1953,-220,-397,909,-227,-20
17089,19105113,-1937,-241,-406,870,-239,-2
17090,19105123,-1992,-271,-400,805,-237,4
17091,19105133,-1966,-316,-391,731,-226,1
17092,19105143,-1977,-325,-412,568,-206,-38
17093,19105153,-2039,-354,-458,412,-202,-80
17094,19105163,-2049,-344,-480,320,-232,-134
17095,19105173,-1983,-264,-505,280,-258,-232
17096,19105183,-1956,-192,-518,328,-265,-274
17097,19105193,-1953,-168,-510,374,-258,-264
17098,19105203,-1921,-141,-509,363,-240,-257
17099,19105213,-1901,-153,-481,384,-214,-227
17100,19105223,-1924,-176,-447,400,-200,-205
17101,19105233,-1933,-159,-421,367,-231,-186
17102,19105243,-1911,-135,-408,330,-267,-171
17103,19105253,-1936,-122,-394,294,-293,-157
17104,19105263,-1968,-115,-385,267,-317,-147
17105,19105273,-1985,-107,-387,239,-352,-129
17106,19105283,-2005,-98,-380,190,-393,-119
17107,19105293,-2084,-83,-383,167,-421,-256
17108,19105290,-2084,-84,-383,168,-422,-109
17109,19105300,-2125,-98,-368,153,-437,-104
17110,19105310,-2139,-85,-378,102,-433,-94
17111,19105320,-2205,-68,-388,31,-434,-93
17112,19105330,-2230,-77,-419,-8,-425,-78
17113,19105340,-2224,-79,-431,-21,-410,-56
17114,19105350,-2196,-77,-433,-29,-401,-56
17115,19105360,-2147,-112,-400,24,-407,-63
17116,19105370,-2091,-97,-345,39,-410,-71
17117,19105380,-1993,-108,-296,48,-425,-64
17118,19105390,-1958,-115,-270,92,-456,-35
17119,19105400,-1952,-132,-274,94,-499,-18
17120,19105410,-1905,-139,-261,75,-524,1
17121,19105420,-1902,-135,-279,14,-539,18
17122,19105430,-1952,-117,-307,-76,-535,9
17123,19105440,-1952,-101,-311,-189,-475,-9
17124,19105450,-1923,-64,-297,-305,-418,-13
17125,19105460,-1870,-31,-276,-366,-347,-10
17126,19105470,-1872,1,-265,-422,-298,21
17127,19105480,-1834,10,-258,-465,-269,71
17128,19105490,-1821,23,-254,-488,-260,143
17129,19105500,-1854,-7,-258,-501,-252,223
17130,19105510,-1891,-25,-251,-513,-236,285
17131,19105520,-1870,-45,-265,-546,-207,331
17132,19105530,-1901,-64,-283,-579,-181,382
17133,19105540,-1960,-87,-301,-612,-152,256
17134,19105536,-1960,-88,-300,-612,-153,420
17135,19105546,-1976,-115,-325,-616,-111,472
17136,19105556,-1993,-147,-343,-608,-65,498
17137,19105566,-2073,-169,-329,-560,-50,514
17138,19105576,-2091,-200,-311,-433,-29,528
17139,19105586,-2114,-209,-294,-306,-10,525
17140,19105596,-2194,-217,-259,-194,-4,527
17141,19105606,-2256,-215,-247,-99,13,505
17142,19105616,-2277,-235,-216,16,53,467
17143,19105626,-2296,-232,-184,111,98,427
17144,19105636,-2346,-239,-137,230,119,361
17145,19105646,-2348,-229,-92,325,142,304
17146,19105656,-2308,-225,1,412,145,228
17147,19105666,-2303,-224,36,476,129,167
17148,19105676,-2303,-207,87,511,94,91
17149,19105686,-2256,-180,139,552,55,21
17150,19105696,-2201,-207,177,591,9,-41
17151,19105706,-2190,-205,224,601,-52,-95
17152,19105716,-2167,-183,225,579,-126,-164
17153,19105726,-2116,-169,210,556,-211,-220
17154,19105736,-2111,-156,171,524,-291,-271
17155,19105746,-2127,-151,127,490,-365,-321
17156,19105756,-2118,-132,100,458,-409,-357
17157,19105766,-2126,-138,40,437,-427,-402
17158,19105776,-2155,-116,5,408,-434,-453
17159,19105786,-2153,-108,-5,362,-422,-512
17160,19105783,-2153,-109,-5,362,-422,-498
17161,19105793,-2096,-69,-20,316,-416,-521
17162,19105803,-2092,-42,-34,274,-413,-541
17163,19105813,-2117,-22,-57,242,-408,-548
17164,19105823,-2080,8,-61,213,-407,-551
17165,19105833,-2032,36,-61,214,-398,-553
17166,19105843,-2048,39,-57,217,-397,-536
17167,19105853,-2047,53,-70,231,-399,-519
17168,19105863,-2006,76,-67,261,-406,-496
17169,19105873,-2026,79,-62,292,-410,-463
17170,19105883,-2061,54,-93,319,-398,-433
17171,19105893,-2039,39,-82,352,-371,-413
17172,19105903,-2024,36,-76,367,-342,-400
17173,19105913,-2029,10,-71,349,-328,-387
17174,19105923,-2036,9,-51,316,-325,-377
17175,19105933,-1987,7,-48,290,-318,-374
17176,19105943,-2005,23,-34,279,-316,-367
17177,19105953,-2022,12,-21,274,-324,-361
17178,19105963,-2014,29,-15,258,-335,-355
17179,19105973,-2024,43,-35,234,-345,-344
17180,19105983,-2036,20,-33,200,-347,-340
17181,19105993,-2073,13,-51,154,-345,-332
17182,19106003,-2049,28,-43,93,-339,-332
17183,19106013,-2044,39,-56,42,-327,-333
17184,19106023,-2065,34,-56,4,-303,-334
17185,19106033,-2031,50,-61,-35,-297,-512
17186,19106030,-2031,50,-60,-35,-297,-329
17187,19106040,-1998,39,-70,-73,-292,-332
17188,19106050,-1997,37,-46,-95,-279,-319
17189,19106060,-1977,39,-57,-130,-277,-308
17190,19106070,-1920,44,-64,-166,-269,-296
17191,19106080,-1915,21,-77,-194,-250,-278
17192,19106090,-1904,6,-80,-231,-238,-268
17193,19106100,-1885,23,-89,-277,-227,-251
17194,19106110,-1856,5,-112,-323,-210,-230
17195,19106120,-1862,12,-141,-343,-187,-216
17196,19106130,-1885,-18,-165,-341,-156,-193
17197,19106140,-1875,-23,-184,-340,-123,-179
17198,19106150,-1878,-44,-177,-330,-82,-182
17199,19106160,-1912,-54,-192,-293,-33,-202
17200,19106170,-1891,-53,-172,-233,20,-209
17201,19106180,-1899,-35,-165,-190,48,-207
17202,19106190,-1948,-34,-165,-154,67,-195
17203,19106200,-1978,-49,-170,-111,87,-187
17204,19106210,-1960,-44,-198,-66,113,-178
17205,19106220,-1969,-68,-182,-12,151,-176
17206,19106230,-2028,-82,-189,46,172,-172
17207,19106240,-2048,-119,-204,74,196,-174
17208,19106250,-2053,-130,-195,91,239,-193
17209,19106260,-2065,-140,-170,152,269,-222
17210,19106270,-2104,-125,-167,186,264,-236
17211,19106280,-2109,-107,-178,185,250,-256
17212,19106276,-2109,-108,-178,185,249,-238
17213,19106286,-2154,-82,-168,228,253,-242
17214,19106296,-2208,-85,-165,328,263,-246
17215,19106306,-2224,-107,-180,414,269,-266
17216,19106316,-2223,-132,-186,472,279,-284
17217,19106326,-2312,-180,-260,519,229,-303
17218,19106336,-2336,-204,-302,634,266,-359
17219,19106346,-2304,-211,-275,860,275,-413
17220,19106356,-2286,-203,-250,1047,211,-456
17221,19106366,-2290,-177,-182,1159,171,-508
17222,19106376,-2235,-185,-80,1275,138,-526
17223,19106386,-2201,-235,6,1359,89,-536
17224,19106396,-2184,-296,17,1337,46,-550
17225,19106406,-2154,-309,39,1266,-42,-614
17226,19106416,-2118,-324,-5,1199,-198,-626
17227,19106426,-2155,-351,-94,1092,-359,-642
17228,19106436,-2221,-347,-187,1010,-438,-681
17229,19106446,-2214,-396,-240,953,-430,-759
17230,19106456,-2234,-396,-287,784,-437,-841
17231,19106466,-2247,-409,-304,581,-411,-933
17232,19106476,-2228,-375,-292,338,-425,-1010
17233,19106486,-2199,-349,-324,57,-435,-1084
17234,19106496,-2179,-300,-347,-183,-431,-1166
17235,19106506,-2205,-219,-392,-461,-464,-1254
17236,19106516,-2138,-145,-503,-776,-464,-1311
17237,19106526,-2101,-79,-587,-1133,-449,-1537
17238,19106523,-2101,-79,-587,-1132,-450,-1349
17239,19106533,-2114,-3,-669,-1453,-410,-1388
17240,19106543,-2093,95,-744,-1676,-359,-1432
17241,19106553,-2030,185,-832,-1818,-298,-1416
17242,19106563,-2007,243,-882,-1863,-196,-1390
17243,19106573,-2008,294,-925,-1808,-115,-1343
17244,19106583,-1965,357,-955,-1647,-63,-1298
17245,19106593,-1932,344,-994,-1401,-10,-1232
17246,19106603,-1907,353,-984,-1138,35,-1147
17247,19106613,-1847,331,-966,-797,31,-1048
17248,19106623,-1728,330,-916,-385,-15,-925
17249,19106633,-1667,308,-870,71,-72,-794
17250,19106643,-1650,250,-825,505,-167,-649
17251,19106653,-1605,166,-714,928,-249,-513
17252,19106663,-1601,100,-642,1270,-274,-388
17253,19106673,-1631,65,-550,1493,-305,-298
17254,19106683,-1642,24,-505,1636,-341,-216
17255,19106693,-1636,-3,-428,1697,-340,-147
17256,19106703,-1643,-17,-405,1676,-344,-75
17257,19106713,-1711,-38,-388,1565,-350,-22
17258,19106723,-1699,-69,-380,1440,-341,36
17259,19106733,-1720,-118,-380,1275,-308,93
17260,19106743,-1755,-145,-390,1064,-244,131
17261,19106753,-1749,-189,-384,892,-162,156
17262,19106763,-1748,-210,-412,730,-114,191
17263,19106773,-1833,-261,-466,573,-69,0
17264,19106770,-1833,-262,-466,573,-70,244
17265,19106780,-1933,-309,-518,514,-48,292
17266,19106790,-1956,-372,-510,556,-20,319
17267,19106800,-1962,-402,-478,641,3,317
17268,19106810,-2006,-467,-469,724,-41,304
17269,19106820,-2035,-488,-483,774,-148,283
17270,19106830,-2017,-496,-491,812,-256,267
17271,19106840,-2027,-526,-496,837,-327,254
17272,19106850,-2051,-573,-533,833,-368,213
17273,19106860,-2016,-584,-575,830,-393,147
17274,19106870,-1981,-594,-600,851,-376,67
17275,19106880,-1972,-584,-613,863,-349,-5
17276,19106890,-1945,-576,-598,861,-313,-77
17277,19106900,-1893,-528,-589,865,-308,-119
17278,19106910,-1899,-486,-603,839,-330,-157
17279,19106920,-1913,-420,-604,822,-359,-179
17280,19106930,-1893,-385,-628,838,-381,-186
17281,19106940,-1867,-343,-637,865,-387,-175
17282,19106950,-1880,-321,-617,896,-400,-160
17283,19106960,-1881,-284,-601,945,-415,-126
17284,19106970,-1815,-267,-582,1002,-424,-91
17285,19106980,-1793,-255,-572,1055,-442,-49
17286,19106990,-1814,-292,-540,1079,-449,-2
17287,19107000,-1866,-413,-416,1098,-415,79
17288,19107010,-1884,-511,-260,1023,-362,140
17289,19107020,-1937,-598,-171,830,-350,0
17290,19107016,-1937,-598,-171,831,-350,123
17291,19107026,-1989,-640,-143,569,-351,142
17292,19107036,-1974,-662,-111,337,-376,110
17293,19107046,-1985,-654,-128,149,-441,33
17294,19107056,-2020,-652,-174,6,-539,-39
17295,19107066,-2047,-610,-232,-78,-617,-93
17296,19107076,-2053,-567,-297,-98,-676,-147
17297,19107086,-2113,-566,-311,-113,-725,-162
17298,19107096,-2140,-561,-389,-174,-765,-151
17299,19107106,-2150,-530,-483,-215,-832,-162
17300,19107116,-2189,-536,-547,-202,-809,-176
17301,19107126,-2206,-525,-551,-176,-735,-206
17302,19107136,-2190,-509,-515,-178,-661,-231
17303,19107146,-2144,-631,-469,-250,-556,-218
17304,19107156,-2147,-646,-356,-448,-469,-230
17305,19107166,-2078,-633,-293,-539,-393,-356
17306,19107176,-2004,-590,-255,-575,-399,-423
17307,19107186,-1985,-539,-279,-614,-455,-459
17308,19107196,-2030,-512,-337,-562,-521,-480
17309,19107206,-2040,-498,-366,-422,-550,-490
17310,19107216,-2025,-460,-368,-287,-522,-517
17311,19107226,-2029,-448,-354,-186,-510,-525
17312,19107236,-2039,-408,-334,-110,-495,-532
17313,19107246,-2006,-369,-300,-66,-459,-529
17314,19107256,-2005,-342,-329,-23,-462,-493
17315,19107266,-2011,-316,-341,-17,-452,-512
17316,19107263,-2011,-316,-341,-17,-453,-469
17317,19107273,-1996,-328,-337,63,-435,-419
17318,19107283,-1970,-345,-325,176,-442,-378
17319,19107293,-2002,-356,-316,314,-458,-353
17320,19107303,-2007,-338,-297,473,-477,-329
17321,19107313,-1974,-364,-270,682,-476,-301
17322,19107323,-1959,-392,-243,837,-456,-283
17323,19107333,-1979,-385,-210,905,-465,-282
17324,19107343,-1942,-371,-209,989,-476,-274
17325,19107353,-1918,-387,-176,1104,-468,-248
17326,19107363,-1922,-384,-128,1226,-466,-243
17327,19107373,-1916,-355,-79,1324,-492,-235
17328,19107383,-1872,-341,-64,1384,-526,-214
17329,19107393,-1888,-325,-59,1442,-552,-197
17330,19107403,-1919,-295,-11,1496,-542,-207
17331,19107413,-1922,-291,0,1513,-535,-194
17332,19107423,-1936,-262,-8,1463,-553,-172
17333,19107433,-1990,-270,-10,1408,-540,-157
17334,19107443,-2021,-277,4,1344,-497,-134
17335,19107453,-2037,-297,-2,1223,-468,-111
17336,19107463,-2051,-296,-41,1068,-445,-99
17337,19107473,-2074,-309,-64,946,-423,-95
17338,19107483,-2072,-319,-96,866,-379,-87
17339,19107493,-2046,-294,-109,838,-366,-95
17340,19107503,-2049,-295,-115,871,-370,-92
17341,19107513,-2052,-288,-96,945,-369,-256
