sequence,timestamp_ms,accel_x,accel_y,accel_z,gyro_x,gyro_y,gyro_z
3432,16819483,-1924,-3215,6038,-2429,-1472,-1746
3433,16819493,-2206,-2694,5250,159,-8038,192
3434,16819503,-2515,-2175,4321,1649,-12593,1399
3435,16819513,-2837,-2151,3804,3088,-15018,1442
3436,16819523,-3137,-2056,3419,4163,-16401,1340
3437,16819533,-3464,-1901,3071,4063,-16848,1154
3438,16819543,-4047,-1492,2467,2746,-16910,1196
3439,16819553,-4529,-927,1602,723,-16694,1068
3440,16819563,-4915,-407,431,-1277,-16138,956
3441,16819573,-5154,-375,-919,-2184,-14944,470
3442,16819583,-5096,-1880,-2483,-1756,-12959,-482
3443,16819593,-3884,-2517,-5506,-2105,-10976,-855
3444,16819603,-3498,-4190,-8972,-1955,-9788,228
3445,16819613,-4186,-4731,-9535,-425,-8400,1766
3446,16819623,-3910,-4810,-7124,2916,-4009,322
3447,16819633,-3306,-3739,-4849,3679,1498,-2583
3448,16819643,-2729,-2132,-3628,1266,4293,-4489
3449,16819653,-2219,-905,-3226,-993,5303,-4415
3450,16819663,-1800,-517,-2958,-1562,5908,-3670
3451,16819673,-1527,-373,-2803,-1030,6686,-2874
3452,16819683,-1350,-467,-2438,-189,7551,-2344
3453,16819693,-1237,-510,-1962,418,8601,-2012
3454,16819703,-1272,-551,-1267,599,9764,-1627
3455,16819713,-1308,-646,-315,463,11038,-1085
3456,16819723,-1591,-776,670,-119,12231,-174
3457,16819733,-2044,-874,1775,-877,13244,768
3458,16819729,-2044,-874,1776,-877,13244,977
3459,16819739,-2673,-1073,2870,-1680,14221,2146
3460,16819749,-3278,-1257,4268,-2626,14999,3278
3461,16819759,-3519,-2146,5675,-3545,15617,3992
3462,16819769,-3535,-3474,7157,-3417,15477,3949
3463,16819779,-3168,-4532,8060,-2186,13523,1756
3464,16819789,-2372,-4821,7598,-1426,9162,-1430
3465,16819799,-2028,-4138,5881,-3521,2082,-1828
3466,16819809,-2382,-3817,4828,-2362,-5309,389
3467,16819819,-2716,-3360,4209,372,-10867,1368
3468,16819829,-2790,-2698,3522,1739,-14090,1031
3469,16819839,-3026,-2446,3057,3145,-15779,754
3470,16819849,-3357,-2194,2750,3682,-16561,580
3471,16819859,-3768,-1840,2271,3118,-16771,276
3472,16819869,-4299,-1276,1663,1534,-16536,-21
3473,16819879,-4645,-816,884,-120,-15911,-160
3474,16819889,-4855,-305,-180,-1780,-15128,-197
3475,16819899,-4849,-135,-1702,-2582,-13948,-286
3476,16819909,-4651,-2263,-3756,-1602,-12458,-266
3477,16819919,-4071,-3338,-6555,-1540,-11098,748
3478,16819929,-5138,-4516,-9186,-1593,-10678,2418
3479,16819939,-4743,-4563,-8379,176,-7795,1549
3480,16819949,-4099,-4064,-5906,2725,-1803,-1171
3481,16819959,-3498,-3030,-4163,2476,3338,-3591
3482,16819969,-2943,-1757,-3175,262,5673,-4748
3483,16819979,-2420,-791,-2902,-1263,6501,-4866
3484,16819976,-2420,-791,-2901,-1262,6500,-4817
3485,16819986,-1984,-299,-2682,-1155,6888,-4403
3486,16819996,-1604,-106,-2396,190,7647,-4248
3487,16820006,-1264,-201,-1943,1664,8570,-3996
3488,16820016,-1138,-249,-1468,2221,9131,-3549
3489,16820026,-1086,-307,-625,1996,9619,-2874
3490,16820036,-1197,-468,306,1231,10460,-1904
3491,16820046,-1678,-592,1420,57,11573,-617
3492,16820056,-2211,-531,2648,-1063,13118,705
3493,16820066,-2973,-866,4121,-1953,14787,1963
3494,16820076,-3179,-1151,5498,-3219,16294,3142
3495,16820086,-3066,-2452,6858,-4695,17643,3988
3496,16820096,-3277,-3607,7405,-4875,17328,4076
3497,16820106,-2797,-4783,7997,-2891,14534,785
3498,16820116,-1736,-4861,7060,-2512,8475,-2857
3499,16820126,-2012,-4313,5404,-4022,461,-1714
3500,16820136,-2319,-3552,4903,-1608,-6978,444
3501,16820146,-2685,-2559,3963,39,-12072,999
3502,16820156,-2799,-2004,3259,1146,-14629,571
3503,16820166,-3104,-2050,2995,2853,-15991,362
3504,16820176,-3501,-2029,2778,3570,-16478,171
3505,16820186,-3975,-1730,2312,2932,-16376,90
3506,16820196,-4468,-1261,1643,1335,-16023,64
3507,16820206,-4851,-824,813,-234,-15563,-25
3508,16820216,-4992,-293,-291,-1613,-14945,-101
3509,16820226,-5028,-365,-1656,-1958,-13992,-256
3510,16820223,-5028,-366,-1656,-1957,-13993,-254
3511,16820233,-4696,-2200,-3762,-1289,-13011,-29
3512,16820243,-4615,-2782,-5990,-1556,-12744,1451
3513,16820253,-5554,-3861,-8062,-1460,-12329,3092
3514,16820263,-5184,-4220,-7949,-157,-9523,2269
3515,16820273,-4522,-3802,-6381,1477,-4444,-345
3516,16820283,-4017,-2976,-4864,1699,1527,-2624
3517,16820293,-3392,-1744,-3689,436,5425,-4560
3518,16820303,-2743,-811,-3074,-444,7420,-5242
3519,16820313,-2118,-70,-2530,-417,8192,-4806
3520,16820323,-1576,77,-2012,544,8460,-4138
3521,16820333,-1349,-104,-1548,1675,8716,-3192
3522,16820343,-1103,-201,-1271,2014,9085,-2734
3523,16820353,-993,-319,-813,1786,9557,-2146
3524,16820363,-1041,-548,-65,1365,10480,-1255
3525,16820373,-1401,-762,937,724,11870,-149
3526,16820383,-2082,-686,2347,141,13400,1115
3527,16820393,-2847,-843,3658,-293,15025,2226
3528,16820403,-3575,-1087,5170,-1085,16369,3110
3529,16820413,-3730,-2283,6897,-2145,17497,3649
3530,16820423,-3485,-3758,8232,-2687,17537,3547
3531,16820433,-2965,-4978,8788,-1368,14996,824
3532,16820443,-2021,-4853,7591,-1813,8970,-2660
3533,16820453,-2289,-4262,5571,-4239,901,-2169
3534,16820463,-2455,-3513,4769,-2396,-6413,67
3535,16820473,-2625,-2698,3905,-342,-11338,256
3536,16820469,-2624,-2698,3906,-342,-11338,350
3537,16820479,-2801,-2132,3119,695,-13929,15
3538,16820489,-3132,-2088,2847,2301,-15376,-165
3539,16820499,-3523,-2026,2613,3236,-16006,-385
3540,16820509,-3890,-1697,2170,2777,-16090,-554
3541,16820519,-4269,-1208,1604,1434,-15962,-568
3542,16820529,-4559,-737,784,-156,-15717,-460
3543,16820539,-4795,-216,-125,-1443,-15319,-355
3544,16820549,-5103,-461,-1668,-1975,-14427,-327
3545,16820559,-4644,-2360,-4204,-1439,-12746,-451
3546,16820569,-4198,-3264,-6991,-1154,-11350,330
3547,16820579,-4621,-4218,-8771,95,-10262,1673
3548,16820589,-4332,-4725,-7581,2349,-6719,1216
3549,16820599,-3915,-4602,-5389,3901,-1524,-926
3550,16820609,-3410,-3282,-3882,2090,2325,-3334
3551,16820619,-2957,-1846,-3142,-789,4352,-4616
3552,16820629,-2328,-717,-2840,-2450,5516,-4826
3553,16820639,-1824,-318,-2682,-2403,6419,-4274
3554,16820649,-1662,-324,-2481,-1486,7209,-3387
3555,16820659,-1578,-418,-2339,-254,7994,-2741
3556,16820669,-1428,-465,-1922,834,8791,-2419
3557,16820679,-1399,-539,-1351,1393,9621,-2160
3558,16820689,-1548,-520,-668,1255,10532,-1752
3559,16820699,-1735,-646,186,782,11759,-1195
3560,16820709,-2069,-809,1138,-71,13091,-444
3561,16820719,-2411,-1007,2088,-1268,14392,256
3562,16820716,-2411,-1008,2089,-1267,14392,455
3563,16820726,-2706,-1177,2762,-2840,15538,1539
3564,16820736,-3153,-1490,3361,-4290,16310,2856
3565,16820746,-3585,-1839,3849,-5539,16810,4188
3566,16820756,-3882,-3296,4850,-5501,16641,4958
3567,16820766,-4003,-4565,5705,-4606,15378,4550
3568,16820776,-3119,-5285,6482,-2592,12761,1635
3569,16820786,-2829,-5226,6174,-1192,8065,-1331
3570,16820796,-2401,-4428,5197,-1057,1676,-2550
3571,16820806,-2308,-3265,4252,-251,-4680,-1440
3572,16820816,-2367,-2480,3556,507,-9370,150
3573,16820826,-2573,-2231,3229,1784,-12509,1057
3574,16820836,-2764,-2331,3183,3289,-14315,1173
3575,16820846,-3089,-2332,3160,4290,-15265,1076
3576,16820856,-3502,-2174,2895,4151,-15684,905
3577,16820866,-3994,-1831,2583,3127,-15903,715
3578,16820876,-4519,-1349,2024,1228,-16073,639
3579,16820886,-4932,-877,1106,-858,-16012,493
3580,16820896,-5264,-260,152,-2746,-15719,273
3581,16820906,-5451,-883,-964,-3314,-15128,-102
3582,16820916,-5024,-1439,-3314,-3274,-14132,-52
3583,16820926,-4779,-3029,-6932,-4149,-13263,603
3584,16820936,-5453,-3658,-8676,-4009,-12844,2391
3585,16820946,-4947,-3454,-8290,-2276,-9933,1418
3586,16820956,-4338,-3310,-6412,1012,-3850,-705
3587,16820966,-3662,-2611,-4516,2321,2551,-2561
3588,16820963,-3661,-2611,-4516,2322,2551,-2426
3589,16820973,-3102,-1605,-3288,1483,5693,-3793
3590,16820983,-2369,-794,-2698,342,6504,-4188
3591,16820993,-1929,-314,-2388,29,6643,-3697
3592,16821003,-1547,-225,-2222,619,6871,-3383
3593,16821013,-1213,-362,-1889,1555,7430,-3164
3594,16821023,-919,-423,-1609,2207,8036,-3017
3595,16821033,-778,-527,-1170,2412,8318,-2722
3596,16821043,-757,-510,-601,2157,8774,-2205
3597,16821053,-764,-697,309,1719,9707,-1391
3598,16821063,-1070,-804,1355,876,10792,-175
3599,16821073,-1608,-617,2606,-79,11971,1218
3600,16821083,-2198,-920,4043,-702,13245,2453
3601,16821093,-2513,-1299,5820,-1568,14517,3426
3602,16821103,-2360,-2617,7326,-2168,15653,3864
3603,16821113,-2830,-3427,7766,-1742,14826,2799
3604,16821123,-1965,-4500,7897,-1252,11777,-353
3605,16821133,-1513,-4432,6534,-2411,5656,-2131
3606,16821143,-1876,-4111,5256,-2831,-1882,-760
3607,16821153,-2172,-3255,4688,-783,-7752,398
3608,16821163,-2158,-2312,3848,708,-11346,-69
3609,16821173,-2395,-1740,3227,1688,-13307,-389
3610,16821183,-2753,-1716,2830,2703,-14568,-250
3611,16821193,-3198,-1585,2539,2941,-15321,17
3612,16821203,-3660,-1370,2037,2132,-15578,147
3613,16821213,-4119,-986,1274,543,-15585,256
3614,16821210,-4118,-986,1274,543,-15585,366
3615,16821220,-4417,-457,511,-990,-15307,481
3616,16821230,-4682,-123,-535,-1911,-14675,519
3617,16821240,-4944,-886,-2031,-1772,-13521,298
3618,16821250,-4493,-1942,-4658,-1540,-11712,381
3619,16821260,-4123,-3444,-7480,-1163,-10053,925
3620,16821270,-4621,-4407,-8994,156,-8559,2197
3621,16821280,-4166,-4460,-7132,2686,-5405,1627
3622,16821290,-3810,-4159,-4708,4298,-640,-529
3623,16821300,-3220,-3094,-3428,2694,3012,-2761
3624,16821310,-2782,-1940,-3028,-275,4477,-4118
3625,16821320,-2332,-1029,-2812,-1938,5053,-4143
3626,16821330,-1820,-438,-2615,-2101,5552,-3776
3627,16821340,-1654,-244,-2469,-1261,6391,-3437
3628,16821350,-1466,-244,-2165,123,7770,-3380
3629,16821360,-1252,-171,-1824,1281,9278,-3420
3630,16821370,-1119,-107,-1094,1892,10505,-3066
3631,16821380,-1131,-224,-115,1930,11530,-2245
3632,16821390,-1409,-504,1042,1528,12520,-1047
3633,16821400,-2047,-611,2174,522,13582,277
3634,16821410,-2838,-876,3192,-368,14876,1481
3635,16821420,-3634,-1431,4200,-1454,16300,2401
3636,16821430,-3969,-2070,5202,-3684,17775,3053
3637,16821440,-3662,-3103,6175,-5588,18675,3410
3638,16821450,-3547,-4258,6794,-5884,17957,2586
3639,16821460,-2692,-4482,7072,-4529,14892,-1024
3640,16821456,-2691,-4483,7072,-4529,14891,-910
3641,16821466,-2079,-4492,6247,-4950,9644,-4081
3642,16821476,-2062,-4231,4784,-5430,2734,-3774
3643,16821486,-2422,-4017,3398,-3185,-5127,-1396
3644,16821496,-3257,-3136,2370,-1638,-10949,844
3645,16821506,-3177,-2496,1942,723,-14042,743
3646,16821516,-3220,-2354,2166,3701,-15600,259
3647,16821526,-3297,-2481,2594,6049,-16142,133
3648,16821536,-3746,-2277,2752,5875,-16139,243
3649,16821546,-4334,-1651,2227,3888,-16277,237
3650,16821556,-4970,-1108,1451,1523,-16454,-81
3651,16821566,-5372,-571,395,-660,-16464,-183
3652,16821576,-5539,-176,-876,-2491,-15988,-452
3653,16821586,-5776,-1914,-2696,-2792,-15092,-679
3654,16821596,-4780,-2044,-5553,-3603,-14317,-75
3655,16821606,-5739,-3547,-8330,-3845,-14705,2129
3656,16821616,-6057,-3801,-8794,-3019,-13233,2658
3657,16821626,-5258,-3576,-7644,-998,-8143,-107
3658,16821636,-4868,-2842,-6192,304,-906,-2239
3659,16821646,-4246,-1845,-4655,626,4706,-4060
3660,16821656,-3567,-919,-3784,81,7543,-4966
3661,16821666,-3060,-419,-3022,4,9181,-4782
3662,16821676,-2535,-215,-2644,587,10045,-4360
3663,16821686,-2147,-315,-2264,1270,10603,-3805
3664,16821696,-1999,-469,-1859,1544,10772,-3125
3665,16821706,-1926,-487,-1444,1025,10963,-2561
3666,16821703,-1926,-488,-1444,1026,10963,-2499
3667,16821713,-1931,-699,-922,369,11611,-1950
3668,16821723,-2174,-796,-271,-628,12593,-1244
3669,16821733,-2483,-953,458,-1756,13744,-318
3670,16821743,-2868,-1284,1401,-2723,15235,693
3671,16821753,-3178,-1783,2281,-3954,16630,1668
3672,16821763,-3616,-2338,2934,-5642,17760,2758
3673,16821773,-4238,-2968,3606,-7708,18511,3949
3674,16821783,-4419,-3905,4362,-9464,18845,4715
3675,16821793,-4109,-4174,4573,-10473,18460,4444
3676,16821803,-2919,-4309,4758,-9854,16429,1884
3677,16821813,-3234,-6090,4554,-7449,11955,30
3678,16821823,-2692,-7019,3936,-4675,4301,-828
3679,16821833,-3272,-5435,2288,-2892,-4745,-680
3680,16821843,-3595,-4294,1547,-1308,-10925,359
3681,16821853,-3692,-3521,1273,668,-14489,351
3682,16821863,-3657,-3412,1610,2837,-16008,-565
3683,16821873,-3419,-3401,2309,5158,-16081,-1560
3684,16821883,-3427,-2970,2573,5755,-15567,-2538
3685,16821893,-3939,-2154,2466,4685,-15393,-3193
3686,16821903,-4698,-1421,1912,2874,-15803,-3507
3687,16821913,-5562,-750,1098,603,-16587,-3817
3688,16821923,-6279,-136,39,-1521,-17375,-3844
3689,16821933,-6682,27,-1203,-2852,-17779,-3941
3690,16821943,-6668,424,-3330,-3423,-17749,-3809
3691,16821953,-6663,-390,-5738,-2758,-17864,-2817
3692,16821949,-6663,-390,-5738,-2758,-17864,-2740
3693,16821959,-7070,-1823,-7562,-191,-16713,-370
3694,16821969,-6704,-3399,-8410,2354,-12730,248
3695,16821979,-5945,-4126,-7881,4317,-6986,-1591
3696,16821989,-4929,-4288,-5950,4808,-1547,-3693
3697,16821999,-4491,-3096,-4851,2296,1967,-4886
3698,16822009,-3838,-1697,-4107,-545,4732,-6033
3699,16822019,-3014,-650,-3723,-1497,6739,-6638
3700,16822029,-2508,-481,-2736,-382,8017,-6126
3701,16822039,-2234,-479,-1907,1045,8762,-5510
3702,16822049,-1811,-345,-1508,1610,9274,-5467
3703,16822059,-1493,-152,-1321,2207,9441,-5512
3704,16822069,-1233,30,-892,2832,9450,-5395
3705,16822079,-999,414,-423,3106,9683,-5222
3706,16822089,-933,546,244,3266,9971,-4933
3707,16822099,-1185,489,1122,2793,10606,-4572
3708,16822109,-1776,741,2040,1464,11515,-3745
3709,16822119,-2592,1099,3565,165,12477,-2382
3710,16822129,-2807,570,5750,-963,14028,-1475
3711,16822139,-2371,-161,6974,-3891,16369,-205
3712,16822149,-1947,-1630,8089,-6595,17432,1509
3713,16822159,-2314,-2419,7982,-8465,16976,2014
3714,16822169,-2106,-2626,7349,-8457,14262,-345
3715,16822179,-1612,-2430,6328,-8087,9266,-3213
3716,16822189,-1347,-2990,5360,-7443,2822,-2541
3717,16822199,-2350,-3370,4746,-3814,-4443,512
3718,16822196,-2350,-3370,4746,-3814,-4444,664
3719,16822206,-3265,-2859,3963,-1454,-10415,2183
3720,16822216,-3776,-2496,3357,307,-14419,2935
3721,16822226,-4267,-2231,3046,2384,-17044,3075
3722,16822236,-4695,-2159,3019,4316,-18561,2746
3723,16822246,-5360,-2201,3146,5232,-18953,2884
3724,16822256,-6030,-2151,2923,4502,-18749,3215
3725,16822266,-6724,-1892,2547,2524,-18374,3189
3726,16822276,-7208,-1286,1663,-468,-17813,2976
3727,16822286,-7249,-733,502,-3392,-17118,2436
3728,16822296,-7384,-1828,-1739,-5182,-16498,1974
3729,16822306,-6962,-2908,-6085,-7424,-16279,2462
3730,16822316,-8710,-4451,-10964,-9571,-17569,3657
3731,16822326,-7896,-2783,-11731,-7817,-15908,1814
3732,16822336,-5916,-3008,-8028,-1293,-8209,-1661
3733,16822346,-5128,-2429,-4614,3314,4778,-2658
3734,16822356,-4389,-1650,-2569,3432,10480,-4913
3735,16822366,-3500,-893,-2222,1649,10279,-6195
3736,16822376,-2622,-159,-1733,356,9167,-5948
3737,16822386,-2010,-76,-1836,667,8143,-5495
3738,16822396,-1646,-102,-1945,1157,7985,-5167
3739,16822406,-1375,-349,-1828,2450,8396,-5122
3740,16822416,-1075,-252,-1553,3299,8712,-5448
3741,16822426,-898,-153,-1107,3619,8781,-5508
3742,16822436,-741,216,-706,3297,9132,-5297
3743,16822446,-826,313,-43,2626,9849,-4866
3744,16822443,-826,313,-43,2626,9849,-4815
3745,16822453,-1039,316,857,1771,10997,-4109
3746,16822463,-1384,248,1735,568,12034,-3152
3747,16822473,-2004,356,2584,-726,12727,-1881
3748,16822483,-3063,516,3999,-1828,13444,-281
3749,16822493,-3602,-178,6065,-3023,14868,866
3750,16822503,-3239,-1315,7621,-5993,17345,2213
3751,16822513,-3085,-3242,8365,-8767,18848,4010
3752,16822523,-3732,-4147,8389,-9935,18436,3516
3753,16822533,-2506,-4633,7789,-8357,14627,-2480
3754,16822543,-1991,-3614,5524,-12208,8410,-5901
3755,16822553,-2306,-4164,4170,-10423,1260,-3272
3756,16822563,-2877,-3535,3472,-6201,-5695,-1882
3757,16822573,-3510,-2451,2354,-4238,-11041,-812
3758,16822583,-3854,-1864,1756,-1893,-14121,-978
3759,16822593,-4184,-1597,1399,739,-16222,-1015
3760,16822603,-4642,-1521,1336,3220,-17572,-1062
3761,16822613,-5194,-1640,1585,5230,-18105,-682
3762,16822623,-5972,-1676,1460,5399,-17993,-313
3763,16822633,-6788,-1724,736,3894,-18031,-178
3764,16822643,-7535,-1947,-609,1746,-18083,-356
3765,16822653,-7142,-2587,-2802,-480,-17743,-778
3766,16822663,-6618,-3451,-6038,-3509,-17717,-405
3767,16822673,-7740,-3889,-7964,-5418,-18609,1396
3768,16822683,-7641,-2774,-7980,-5875,-18331,1266
3769,16822693,-6713,-1730,-7446,-4643,-14675,-1537
3770,16822689,-6713,-1731,-7446,-4642,-14675,-1335
3771,16822699,-5380,-1017,-7083,-3290,-7880,-3596
3772,16822709,-4712,-973,-5753,-915,639,-4391
3773,16822719,-4017,-581,-3779,773,6886,-4657
3774,16822729,-3165,-45,-2762,1559,9499,-5082
3775,16822739,-2273,214,-2081,1546,9761,-4934
3776,16822749,-1764,-26,-1565,1787,9399,-4225
3777,16822759,-1384,-18,-1627,1321,9345,-3775
3778,16822769,-1178,-126,-1510,1068,9909,-3542
3779,16822779,-1025,-67,-940,1218,10974,-3074
3780,16822789,-1152,-174,139,1174,12360,-2354
3781,16822799,-1580,-340,1591,702,13906,-1047
3782,16822809,-2182,-312,2762,-255,15448,467
3783,16822819,-3024,-565,3838,-1034,16974,1872
3784,16822829,-3744,-1276,5422,-1924,18180,3210
3785,16822839,-3620,-2878,7128,-4023,19579,4458
3786,16822849,-2636,-4585,8155,-7344,20746,5637
3787,16822859,-2530,-4000,7137,-9454,20246,5178
3788,16822869,-2574,-4008,6718,-7459,16178,512
3789,16822879,-2637,-5091,5560,-6552,9984,-4347
3790,16822889,-2270,-5153,4943,-2779,872,-4320
3791,16822899,-3456,-3657,3649,-2671,-8081,-2718
3792,16822909,-4035,-2485,2675,-2352,-14380,-849
3793,16822919,-4400,-1989,2097,-562,-17799,-912
3794,16822929,-4672,-1929,1969,2052,-19859,-1599
3795,16822939,-5010,-2105,2493,5142,-20514,-2305
3796,16822936,-5009,-2106,2494,5143,-20514,-2297
3797,16822946,-5734,-1944,2786,6285,-19870,-2309
3798,16822956,-7141,-1727,2522,5158,-19085,-1533
3799,16822966,-8050,-708,1132,2304,-18890,-1515
3800,16822976,-8667,-334,-935,-333,-18369,-2219
3801,16822986,-7582,-2759,-4463,-901,-17440,-2541
3802,16822996,-7079,-4539,-9135,-2327,-16856,-1333
3803,16823006,-7916,-3895,-13456,-4819,-17048,843
3804,16823016,-6025,-3414,-10726,-63,-11207,-1381
3805,16823026,-5224,-3950,-6367,5943,-1652,-3258
3806,16823036,-4487,-2627,-4450,2967,3786,-6073
3807,16823046,-3967,-908,-3720,-1273,5139,-6191
3808,16823056,-3022,85,-3437,-2981,5519,-5110
3809,16823066,-2652,320,-3079,-2332,6333,-3807
3810,16823076,-2249,-288,-2565,-206,8010,-3398
3811,16823086,-2012,-350,-2190,1145,9729,-3570
3812,16823096,-1652,-392,-1690,1889,10515,-3824
3813,16823106,-1575,-263,-1037,2135,10702,-3748
3814,16823116,-1491,-76,-366,1924,10995,-3418
3815,16823126,-1645,-145,478,1541,11611,-2841
3816,16823136,-1963,-266,1591,892,12764,-1999
3817,16823146,-2633,-99,2755,-139,14039,-760
3818,16823156,-3660,-91,4388,-1105,15139,774
3819,16823166,-4163,-818,6729,-2314,16557,2131
3820,16823176,-3848,-2359,9340,-4198,18604,3296
3821,16823186,-4183,-3371,9885,-5443,19799,3073
3822,16823183,-4182,-3371,9885,-5443,19799,3279
3823,16823193,-3294,-4837,9579,-4672,17065,-830
3824,16823203,-1644,-4752,7968,-5392,10143,-4813
3825,16823213,-2428,-4765,5701,-7054,64,-1575
3826,16823223,-3100,-3920,5516,-2547,-8204,1206
3827,16823233,-3154,-2768,4466,-249,-13291,1166
3828,16823243,-3104,-1971,3638,1770,-15636,267
3829,16823253,-3307,-1638,3340,3818,-17142,225
3830,16823263,-3848,-1457,3074,4536,-18241,446
3831,16823273,-4507,-1182,2619,3723,-18687,755
3832,16823283,-5335,-722,2054,2120,-18591,1091
3833,16823293,-5901,-171,1313,380,-18132,1049
3834,16823303,-6426,285,540,-1125,-17423,1057
3835,16823313,-6742,-382,-537,-2066,-16613,1138
3836,16823323,-6655,-1274,-3343,-3068,-16217,1773
3837,16823333,-7620,-1922,-6942,-4939,-17254,3896
3838,16823343,-8892,-2824,-9768,-5279,-18039,6594
3839,16823353,-8645,-3056,-9816,-3485,-16035,5888
3840,16823363,-7559,-3659,-7613,780,-8369,3291
3841,16823373,-6859,-2755,-5102,2621,3015,-159
3842,16823383,-5519,-1167,-3259,1994,10581,-5094
3843,16823393,-4427,-562,-2379,1844,13192,-6518
3844,16823403,-3478,104,-1693,1627,12697,-5760
3845,16823413,-2727,56,-1107,2153,11666,-5331
3846,16823423,-2274,171,-905,2133,10996,-4732
3847,16823433,-1945,27,-846,2395,10841,-4610
3848,16823429,-1945,27,-845,2395,10840,-4469
3849,16823439,-1863,-11,-704,2448,10878,-4156
3850,16823449,-1889,110,-331,2357,11326,-3643
3851,16823459,-2060,-3,591,2106,12396,-2913
3852,16823469,-2456,-197,1797,1391,14003,-1777
3853,16823479,-3108,-220,3057,248,15849,-331
3854,16823489,-3961,-475,4487,-488,17421,1019
3855,16823499,-4622,-1086,6338,-1601,18654,2621
3856,16823509,-4826,-3007,8295,-3854,20170,4193
3857,16823519,-4293,-4336,8929,-6435,21408,5299
3858,16823529,-4319,-6414,9300,-5026,19549,2734
3859,16823539,-3025,-5510,7977,-5456,13396,-3476
3860,16823549,-3280,-5387,5667,-7377,5220,-4223
3861,16823559,-3168,-4387,4682,-4530,-4562,-2471
3862,16823569,-3848,-3024,3433,-3264,-11573,-693
3863,16823579,-3844,-2210,2526,-1576,-15132,-614
3864,16823589,-4090,-2031,2138,953,-17302,-913
3865,16823599,-4378,-2023,2365,3434,-18766,-1298
3866,16823609,-4961,-1894,2600,4660,-19102,-1574
3867,16823619,-5838,-1264,2199,3745,-18833,-1517
3868,16823629,-6700,-539,1400,1701,-18616,-1764
3869,16823639,-7440,299,377,-238,-18417,-2036
3870,16823649,-7743,-84,-1634,-1348,-18111,-2109
3871,16823659,-7450,-2048,-5226,-2406,-17566,-1657
3872,16823669,-6932,-3037,-9115,-2921,-17312,502
3873,16823679,-7681,-3436,-11110,-1705,-16298,2305
3874,16823676,-7680,-3436,-11110,-1704,-16298,2477
3875,16823686,-6514,-4027,-9123,2938,-10901,1648
3876,16823696,-5622,-3718,-6448,5244,-4154,-630
3877,16823706,-4828,-2742,-4661,3842,1532,-3806
3878,16823716,-4228,-2052,-3584,1041,4547,-5774
3879,16823726,-3384,-852,-3323,-1630,5920,-6094
3880,16823736,-2670,-239,-3126,-2631,6571,-5541
3881,16823746,-2293,-76,-2706,-1739,7394,-4807
3882,16823756,-2085,-47,-2250,-392,8667,-4613
3883,16823766,-1834,159,-1857,369,9918,-4776
3884,16823776,-1677,321,-1283,1039,10902,-4660
3885,16823786,-1587,417,-473,1333,11785,-3995
3886,16823796,-1859,252,753,1456,12677,-2852
3887,16823806,-2761,242,2338,976,13733,-1369
3888,16823816,-4327,903,3792,510,15290,361
3889,16823826,-5721,384,7465,1399,17294,1589
3890,16823836,-5192,-1591,12299,910,20120,1692
3891,16823846,-2490,-2811,14161,-879,23111,1722
3892,16823856,-4517,-5031,13418,59,21077,-1924
3893,16823866,-535,-4273,9711,-3430,11075,-8671
3894,16823876,-2156,-2687,7494,-6765,-3127,-779
3895,16823886,-3421,-2075,6959,-1996,-12350,4099
3896,16823896,-3272,-1122,4949,498,-16303,1778
3897,16823906,-3409,-1108,4315,4432,-18461,1441
3898,16823916,-4082,-1049,3869,6519,-19583,2631
3899,16823926,-4851,-955,3289,5758,-19773,3073
3900,16823923,-4850,-956,3289,5758,-19773,3225
3901,16823933,-5737,-547,2604,3610,-18830,4204
3902,16823943,-6680,-445,2066,937,-17630,4519
3903,16823953,-7591,-548,890,-1887,-16416,4784
3904,16823963,-7884,-821,-851,-4583,-15229,4157
3905,16823973,-7203,-2477,-6228,-7007,-14689,3567
3906,16823983,-7473,-2565,-12468,-8840,-15443,3662
3907,16823993,-7675,-4311,-14574,-3871,-13027,4465
3908,16824003,-7215,-5716,-10654,2859,-4212,2707
3909,16824013,-6046,-4428,-6181,5359,5531,-1931
3910,16824023,-4775,-2452,-4001,3543,10006,-5873
3911,16824033,-3630,-851,-3208,706,10474,-6795
3912,16824043,-3041,-145,-2554,-298,9704,-5724
3913,16824053,-2432,318,-2105,-162,9227,-4703
3914,16824063,-2093,452,-1955,220,9545,-3843
3915,16824073,-1999,287,-1439,858,10630,-3188
3916,16824083,-2214,19,-417,1115,12165,-2446
3917,16824093,-2807,-337,1275,821,13792,-1234
3918,16824103,-3925,-172,3056,-395,15408,653
3919,16824113,-5292,-836,5821,-1230,17154,2430
3920,16824123,-5298,-1894,9078,-2257,19305,3174
3921,16824133,-4850,-3508,11694,-2719,21170,2715
3922,16824143,-3963,-5125,11542,-2449,19410,-965
3923,16824153,-2580,-5356,10297,-4176,12117,-3547
3924,16824163,-3073,-4577,7809,-5728,2338,-1277
3925,16824173,-3457,-3998,6880,-2641,-6600,1024
3926,16824170,-3457,-3999,6881,-2640,-6601,1140
3927,16824180,-3136,-2733,5502,-125,-11710,703
3928,16824190,-3082,-1903,4225,1509,-14422,130
3929,16824200,-3450,-1498,3582,2453,-16402,308
3930,16824210,-4315,-1086,2803,2041,-17765,616
3931,16824220,-5220,-345,1898,570,-18293,640
3932,16824230,-6398,182,786,-951,-18322,360
3933,16824240,-7391,-329,-1356,-1826,-17683,-148
3934,16824250,-7300,-1849,-4958,-2030,-16041,-933
3935,16824260,-5786,-4019,-9444,-542,-13673,-1627
3936,16824270,-5047,-5142,-12814,868,-11611,-962
3937,16824280,-4916,-5479,-11270,3635,-7863,-909
3938,16824290,-4183,-5259,-7859,6045,-1019,-3198
3939,16824300,-3567,-3174,-5889,3217,3411,-5652
3940,16824310,-3036,-1289,-5345,-485,5154,-6170
3941,16824320,-2690,-89,-4752,-2054,6328,-5310
3942,16824330,-1976,359,-3973,-1200,8027,-4508
3943,16824340,-1634,296,-2968,-63,9897,-3747
3944,16824350,-1409,192,-1966,-148,11286,-2936
3945,16824360,-1549,11,-791,-872,12427,-1873
3946,16824370,-2310,-409,744,-1870,13490,-438
3947,16824380,-3445,-299,2380,-3305,14905,1481
3948,16824390,-4971,-665,4488,-4287,16747,3522
3949,16824400,-5904,-1812,6421,-5119,18582,5107
3950,16824410,-6430,-4723,9206,-6197,20195,5450
3951,16824420,-5074,-6243,10034,-5380,20228,2049
3952,16824416,-5073,-6243,10034,-5380,20228,2287
3953,16824426,-3690,-7015,9464,-3751,14607,-3453
3954,16824436,-3221,-5913,6707,-7181,4898,-4760
3955,16824446,-3463,-5148,5323,-3744,-5343,-1086
3956,16824456,-3904,-3688,4412,-500,-12226,204
3957,16824466,-3679,-2761,3472,1939,-15234,-301
3958,16824476,-3702,-2233,3164,4521,-17059,-762
3959,16824486,-4032,-2028,3064,6236,-18235,-889
3960,16824496,-4954,-1651,2576,5542,-18904,-447
3961,16824506,-5920,-840,1835,3258,-19320,-239
3962,16824516,-7038,28,781,823,-19530,-360
3963,16824526,-7805,905,-910,-1313,-19355,-726
3964,16824536,-7709,-593,-3676,-1627,-18388,-1569
3965,16824546,-6659,-1842,-7779,-2579,-17236,-699
3966,16824556,-8388,-3718,-12733,-2741,-17744,1946
3967,16824566,-7766,-3814,-13254,91,-14671,3321
3968,16824576,-6649,-5196,-8921,7168,-5092,-427
3969,16824586,-5514,-4195,-6109,6961,4049,-5036
3970,16824596,-4792,-1978,-4482,2333,7404,-7924
3971,16824606,-3595,-15,-4112,-1285,8626,-8073
3972,16824616,-2842,701,-3098,-1704,9216,-6368
3973,16824626,-2462,711,-2280,-63,9780,-4686
3974,16824636,-2055,551,-1641,1035,10599,-3956
3975,16824646,-1756,189,-1012,1496,11493,-3393
3976,16824656,-1870,-127,-153,1168,12372,-2566
3977,16824666,-2625,-365,1052,350,13484,-1281
3978,16824663,-2624,-366,1053,351,13484,-1158
3979,16824673,-3892,-117,3083,-276,15125,531
3980,16824683,-4991,-101,6048,-188,17466,1488
3981,16824693,-5590,-1125,9299,-465,19832,1530
3982,16824703,-5558,-2541,12923,-1967,21438,1352
3983,16824713,-4324,-4341,13105,-2664,20967,-1470
3984,16824723,-2965,-5600,11035,-5698,14391,-4797
3985,16824733,-3134,-5512,7476,-8300,3246,-1839
3986,16824743,-3706,-4241,6663,-6430,-6822,1409
3987,16824753,-3416,-3024,5556,-579,-11842,146
3988,16824763,-2838,-1746,4282,3183,-14559,-1355
3989,16824773,-3055,-1571,3885,5320,-16454,-727
3990,16824783,-3738,-1292,3253,5062,-17770,417
3991,16824793,-4525,-904,2325,3495,-18105,811
3992,16824803,-5586,-152,1023,1291,-17532,1055
3993,16824813,-6181,900,-692,-123,-16404,435
3994,16824823,-6711,628,-2380,710,-14580,-548
3995,16824833,-5954,-2907,-4428,3190,-12430,-1424
3996,16824843,-4570,-4562,-8315,1745,-11800,117
3997,16824853,-4838,-5625,-12581,-1015,-11957,3353
3998,16824863,-5879,-6473,-11599,889,-8984,4696
3999,16824873,-5319,-6259,-8496,4199,-1736,742
4000,16824883,-3843,-4308,-6139,3356,4771,-4211
4001,16824893,-3417,-2413,-4665,559,6962,-5813
4002,16824903,-3047,-844,-3735,-1511,7587,-4831
4003,16824913,-2425,-43,-2985,-1425,8353,-4354
4004,16824910,-2425,-43,-2984,-1425,8352,-4302
4005,16824920,-1961,232,-2115,-180,9320,-3809
4006,16824930,-1535,287,-1203,709,10159,-3353
4007,16824940,-1526,193,-351,995,10728,-2622
4008,16824950,-2045,187,1080,711,11357,-1502
4009,16824960,-3086,913,4237,24,12708,-352
4010,16824970,-3867,291,9260,-135,15897,387
4011,16824980,-3507,252,10823,-3798,20303,-143
4012,16824990,-3550,-1873,11085,-6960,20983,-150
4013,16825000,-3501,-4620,10534,-6850,15005,158
4014,16825010,-3888,-6628,8246,-8858,6243,3130
4015,16825020,-4500,-6920,6031,-8412,-2234,3603
4016,16825030,-4534,-6411,6077,-3641,-8447,3251
4017,16825040,-3827,-4609,4818,1953,-11432,-219
4018,16825050,-3720,-2487,3312,1958,-13761,-1722
4019,16825060,-3882,-1576,2681,2214,-15420,-1719
4020,16825070,-4461,-815,1828,1505,-16792,-1367
4021,16825080,-5092,-103,808,-29,-17394,-1657
4022,16825090,-5937,613,-103,-1378,-17514,-1630
4023,16825100,-6421,656,-987,-1833,-17248,-1827
4024,16825110,-6603,836,-3091,-1613,-16818,-1644
4025,16825120,-6263,-569,-5516,-1478,-16831,-156
4026,16825130,-7741,-2648,-8406,-1426,-17165,3703
4027,16825140,-8742,-4048,-10369,-1593,-16073,5636
4028,16825150,-7707,-4051,-9724,-98,-10574,2833
4029,16825160,-6554,-3679,-7535,1926,-2080,-1281
4030,16825157,-6554,-3679,-7534,1926,-2081,-1254
4031,16825167,-5525,-2053,-5230,1845,5199,-4939
4032,16825177,-4263,-406,-3706,140,8601,-7445
4033,16825187,-3285,669,-3166,-980,9565,-7141
4034,16825197,-2553,982,-2346,-151,9824,-5956
4035,16825207,-1975,982,-1715,1217,10477,-5074
4036,16825217,-1443,888,-1082,2039,11330,-4430
4037,16825227,-1188,634,-224,2395,11952,-3596
4038,16825237,-1424,191,788,1879,12820,-2281
4039,16825247,-2354,295,2507,889,14255,-619
4040,16825257,-3446,936,5378,411,16476,1028
4041,16825267,-3930,-620,8812,888,19664,1891
4042,16825277,-3753,-1540,10565,-2665,23001,3084
4043,16825287,-3296,-2762,9968,-5602,24388,3824
4044,16825297,-4456,-5313,9339,-4319,20183,1120
4045,16825307,-1848,-6047,8498,-6240,12546,-3100
4046,16825317,-3189,-5560,5488,-9064,2348,-1131
4047,16825327,-3644,-5043,5384,-4703,-7059,731
4048,16825337,-3651,-3313,4048,-829,-12146,-588
4049,16825347,-3423,-2004,2846,739,-14778,-1352
4050,16825357,-3754,-1679,2449,2712,-16551,-817
4051,16825367,-4294,-1403,2155,3041,-17819,-308
4052,16825377,-4754,-1010,1705,2169,-17996,-210
4053,16825387,-5523,-893,1020,556,-17528,-77
4054,16825397,-6189,-506,-209,-1284,-16945,-82
4055,16825407,-6426,-1141,-3048,-2236,-16375,-768
4056,16825403,-6426,-1141,-3048,-2235,-16376,-654
4057,16825413,-6530,-3190,-7162,-2080,-15818,-1231
4058,16825423,-6430,-4538,-9864,-1784,-15439,-322
4059,16825433,-6461,-3366,-10247,-871,-13269,-142
4060,16825443,-5375,-2885,-8306,2142,-7191,-2465
4061,16825453,-4288,-2154,-6244,3386,-566,-4668
4062,16825463,-3666,-1052,-4661,1339,2984,-5730
4063,16825473,-2717,169,-3838,-617,4404,-5049
4064,16825483,-1885,763,-3584,-1486,5139,-3666
4065,16825493,-1508,675,-2992,-1193,5931,-1732
4066,16825503,-1159,260,-2251,-497,7244,-400
4067,16825513,-797,-228,-1270,-581,9312,649
4068,16825523,-862,-729,-97,-1103,11512,2002
4069,16825533,-1453,-1045,1357,-1666,13668,3716
4070,16825543,-2098,-1326,3479,-1829,15877,5370
4071,16825553,-2134,-2673,5971,-869,18171,6378
4072,16825563,-2351,-3192,8009,160,19407,5805
4073,16825573,-2030,-3639,8406,1533,18820,3038
4074,16825583,-2639,-4621,8101,1863,15022,-1357
4075,16825593,-974,-4797,6932,925,9359,-3701
4076,16825603,-1154,-3349,5258,-1808,-91,-1316
4077,16825613,-1341,-2790,4350,-742,-7828,1146
4078,16825623,-1520,-2311,2786,-540,-11951,1346
4079,16825633,-1774,-1925,810,-955,-13604,436
4080,16825643,-1967,-1238,-1464,-1103,-14153,-167
4081,16825653,-1373,-309,-3283,332,-13226,-1281
4082,16825650,-1373,-309,-3283,332,-13226,-1257
4083,16825660,-735,-422,-4594,3626,-10348,-2675
4084,16825670,-1087,-1554,-4909,5368,-7102,-2207
4085,16825680,-1315,-2661,-4967,4908,-2973,-855
4086,16825690,-186,-2581,-5684,451,-310,-1288
4087,16825700,-344,-724,-5617,-4860,2477,-904
4088,16825710,-459,-1277,-4240,-2803,4649,656
4089,16825720,-342,-1318,-3191,-1893,5909,1056
4090,16825730,-368,-1111,-2627,-2646,6508,1075
4091,16825740,-405,-1089,-2000,-3174,7010,1483
4092,16825750,-629,-1277,-1371,-3239,7580,2041
4093,16825760,-957,-1582,-654,-3024,8248,2475
4094,16825770,-1131,-1915,197,-2570,8861,2525
4095,16825780,-1144,-2232,1025,-2323,9117,2217
4096,16825790,-948,-2316,1612,-2866,8860,1663
4097,16825800,-836,-2495,1446,-3794,7906,1273
4098,16825810,-796,-2684,928,-4449,6240,1151
4099,16825820,-867,-2791,160,-4265,4056,1106
4100,16825830,-1060,-2749,-455,-3450,1958,1099
4101,16825840,-1183,-2660,-834,-2133,599,823
4102,16825850,-1197,-2638,-912,-788,88,458
4103,16825860,-1128,-2638,-863,18,6,129
4104,16825870,-972,-2620,-784,580,-67,-22
4105,16825880,-783,-2586,-714,995,-261,-178
4106,16825890,-538,-2454,-843,934,-467,-393
4107,16825900,-292,-2267,-1046,747,-563,-768
4108,16825896,-292,-2268,-1045,748,-564,-653
4109,16825906,-117,-1926,-1197,561,-550,-854
4110,16825916,58,-1744,-1262,525,-451,-988
4111,16825926,201,-1486,-1214,570,-281,-1068
4112,16825936,301,-1339,-1125,655,-119,-1141
4113,16825946,423,-1107,-1017,560,-59,-1181
4114,16825956,488,-937,-924,493,-186,-1077
4115,16825966,494,-588,-856,391,-380,-745
4116,16825976,408,-136,-711,362,-729,17
4117,16825986,283,-197,-595,1016,-1177,1070
4118,16825996,191,-710,-524,1328,-1294,2203
4119,16826006,-2034,-5649,-2148,1748,-1444,3024
4120,16826016,-571,-1887,-3380,-6241,-1475,82
4121,16826026,20,-1022,-2679,-1654,-323,-1943
4122,16826036,417,-1910,-1210,1944,824,-649
4123,16826046,197,-2029,-1419,1924,20,431
4124,16826056,276,-1553,-1913,1110,-433,209
4125,16826066,244,-1478,-1874,1420,-172,85
4126,16826076,187,-1575,-1416,1903,124,277
4127,16826086,119,-1682,-1156,2043,282,286
4128,16826096,6,-2542,-1013,1857,176,350
4129,16826106,-466,-902,-1419,1431,95,464
4130,16826116,-369,-1258,-1686,562,148,37
4131,16826126,-421,-2298,-1299,1352,900,983
4132,16826136,-632,-2573,-1107,747,1066,1139
4133,16826146,-659,-2550,-1184,387,841,256
4134,16826143,-659,-2550,-1184,388,841,319
4135,16826153,-489,-2349,-1446,-104,596,-797
4136,16826163,-449,-2336,-1622,-226,394,-1049
4137,16826173,-419,-2215,-1759,-47,199,-982
4138,16826183,-400,-2088,-1774,404,18,-1126
4139,16826193,-331,-1867,-1762,1057,-65,-1378
4140,16826203,-272,-1737,-1749,1844,-128,-1652
4141,16826213,-172,-1546,-1846,2533,-62,-2013
4142,16826223,-23,-1417,-1795,3150,175,-2419
4143,16826233,194,-1460,-1632,3700,608,-2638
4144,16826243,250,-1382,-1591,3758,752,-2539
4145,16826253,333,-1473,-1620,3734,638,-2408
4146,16826263,324,-1421,-1855,3447,700,-2190
4147,16826273,356,-1499,-2079,3445,1112,-2091
4148,16826283,265,-1605,-1982,3760,1873,-2086
4149,16826293,277,-1419,-1758,3692,2717,-2340
4150,16826303,420,-1165,-1508,3423,3386,-2779
4151,16826313,488,-996,-1132,3394,4053,-2777
4152,16826323,510,-899,-803,3061,4600,-2487
4153,16826333,410,-939,-460,2518,5100,-2082
4154,16826343,373,-901,-1,1854,5516,-1733
4155,16826353,318,-791,723,1359,5780,-1336
4156,16826363,240,-630,1601,820,5849,-553
4157,16826373,157,-526,2777,253,5740,285
4158,16826383,102,-600,4273,76,5417,721
4159,16826393,302,-876,5386,218,4653,768
4160,16826390,302,-876,5386,218,4652,811
4161,16826400,99,-1345,5644,339,2358,1541
4162,16826410,-340,-1768,5426,1129,-1255,2974
4163,16826420,-1107,-1973,5207,2220,-5092,4761
4164,16826430,-1679,-2132,5130,3807,-8230,5952
4165,16826440,-1980,-2171,5014,5213,-10786,6080
4166,16826450,-2219,-2154,4686,6108,-12690,5696
4167,16826460,-2650,-1964,4202,5997,-14256,5453
4168,16826470,-3305,-1709,3475,4912,-15588,5421
4169,16826480,-4052,-1457,2771,3494,-16394,5214
4170,16826490,-4822,-1244,2059,1894,-16601,5001
4171,16826500,-5442,-948,1189,376,-16216,4634
4172,16826510,-5800,-723,314,-1143,-15596,3944
4173,16826520,-6332,-1600,-1079,-2282,-15092,3383
4174,16826530,-5962,-3030,-4033,-3608,-14931,3120
4175,16826540,-5350,-4782,-8259,-4583,-14745,3003
4176,16826550,-5621,-5338,-11168,-4335,-13752,3208
4177,16826560,-5885,-5493,-10305,-881,-9746,1796
4178,16826570,-5522,-4922,-7075,3024,-1971,-1339
4179,16826580,-4598,-3567,-4759,3352,5106,-5214
4180,16826590,-3977,-2173,-3840,1651,8188,-7147
4181,16826600,-3325,-1363,-3341,919,8964,-7081
4182,16826610,-2799,-1011,-2858,1552,9226,-6407
4183,16826620,-2563,-901,-2564,2494,9456,-5954
4184,16826630,-2422,-597,-1982,3327,9955,-5916
4185,16826640,-2261,-121,-1295,3438,10655,-6147
4186,16826636,-2261,-122,-1295,3438,10654,-6099
4187,16826646,-2248,197,-452,3144,11288,-5892
4188,16826656,-2554,140,568,2486,11965,-5234
4189,16826666,-2901,50,1567,1406,13209,-4452
4190,16826676,-3896,344,2770,187,14310,-3263
4191,16826686,-5216,338,5639,-813,15231,-2112
4192,16826696,-5152,-10,9026,-3408,17231,-1878
4193,16826706,-3827,-2161,11507,-6285,19517,-1720
4194,16826716,-3096,-2785,11242,-8345,18578,-3494
4195,16826726,-1853,-3516,9644,-8019,11159,-6697
4196,16826736,-2174,-3475,7147,-8142,2433,-2984
4197,16826746,-3345,-3235,6902,-4191,-5079,2158
4198,16826756,-3071,-2359,5689,640,-9502,1658
4199,16826766,-2849,-1729,4874,3245,-11959,1170
4200,16826776,-2893,-477,4043,4669,-14101,2302
4201,16826786,-3083,-451,3646,5965,-15603,2594
4202,16826796,-3878,-645,3328,6070,-16207,4031
4203,16826806,-4856,-832,2908,4817,-16644,5020
4204,16826816,-5970,-704,2155,2989,-17053,5709
4205,16826826,-7440,-584,956,703,-17095,5828
4206,16826836,-8276,-1759,-724,-891,-15924,4705
4207,16826846,-7634,-3072,-3261,-2683,-14236,2599
4208,16826856,-5258,-5308,-7767,-3745,-13718,1276
4209,16826866,-4437,-7106,-14078,-4870,-13689,2039
4210,16826876,-5002,-5829,-14054,-3630,-11027,2184
4211,16826886,-4449,-6793,-8299,5157,-735,-768
4212,16826883,-4448,-6794,-8298,5158,-736,-599
4213,16826893,-3291,-4617,-4635,4454,5777,-5135
4214,16826903,-2902,-2666,-3961,-111,6596,-6009
4215,16826913,-2799,-1188,-4106,-2751,5938,-4878
4216,16826923,-2146,-566,-3771,-1349,6574,-4588
4217,16826933,-1754,-406,-3005,1035,7913,-4710
4218,16826943,-1403,-189,-2220,2509,8891,-4708
4219,16826953,-1072,3,-1389,2891,9538,-4734
4220,16826963,-1019,203,-572,2480,9937,-4403
4221,16826973,-1517,227,473,1661,10438,-3707
4222,16826983,-2437,564,1995,653,11570,-2898
4223,16826993,-3584,953,4619,-462,13033,-2229
4224,16827003,-4189,520,8634,-2510,14977,-1836
4225,16827013,-2975,-345,10337,-6480,17704,-1214
4226,16827023,-2539,-1625,10493,-9089,17433,-1252
4227,16827033,-1969,-3559,9653,-8561,12542,-2308
4228,16827043,-1976,-4001,7608,-8318,5290,-1539
4229,16827053,-2126,-3722,5697,-7340,-1804,1137
4230,16827063,-3065,-3533,5530,-1759,-7869,3377
4231,16827073,-2558,-2366,4741,3002,-11490,1576
4232,16827083,-2722,-1550,4030,4698,-13867,1594
4233,16827093,-3263,-1259,3508,5860,-15592,2685
4234,16827103,-3937,-1067,2658,5598,-16628,3316
4235,16827113,-4830,-935,1766,4492,-16705,3862
4236,16827123,-5681,-1063,944,3278,-15991,4139
4237,16827133,-6326,-1862,-27,1857,-14985,3842
4238,16827130,-6326,-1863,-27,1857,-14985,3883
4239,16827140,-6487,-2911,-1446,-490,-14047,3125
4240,16827150,-5678,-4623,-5074,-2288,-13701,2296
4241,16827160,-4016,-7174,-10123,-2785,-12968,1311
4242,16827170,-4044,-6255,-12201,-2854,-10279,1151
4243,16827180,-3826,-5248,-9434,830,-4828,-906
4244,16827190,-3181,-4178,-5794,3479,2025,-3377
4245,16827200,-2701,-2758,-4015,1494,4795,-4630
4246,16827210,-2504,-1718,-3929,-1067,5062,-4120
4247,16827220,-2177,-1067,-4034,-1681,5526,-3692
4248,16827230,-1775,-825,-3536,-378,6908,-3967
4249,16827240,-1587,-697,-2712,931,8506,-4035
4250,16827250,-1448,-421,-1839,1399,9829,-4182
4251,16827260,-1527,-199,-1010,1215,10924,-3896
4252,16827270,-1879,-284,266,798,12084,-3236
4253,16827280,-2446,-250,1643,-367,13355,-2527
4254,16827290,-3407,49,3136,-1964,14655,-1453
4255,16827300,-4422,-279,5575,-3434,15992,-480
4256,16827310,-4270,-685,7405,-6142,17673,311
4257,16827320,-3944,-2895,8876,-8501,18490,842
4258,16827330,-3427,-4051,9183,-10170,16889,335
4259,16827340,-2536,-5254,8140,-8583,12027,-3094
4260,16827350,-1998,-5091,6054,-9687,4994,-3218
4261,16827360,-2926,-4645,4567,-6456,-3827,210
4262,16827370,-3025,-3526,4308,-1366,-9803,716
4263,16827380,-3081,-2456,3123,686,-13193,768
4264,16827376,-3081,-2457,3123,687,-13194,848
4265,16827386,-3188,-1649,2484,2220,-15048,974
4266,16827396,-3481,-1225,2137,4325,-16611,635
4267,16827406,-3925,-1343,1885,6086,-16935,486
4268,16827416,-4707,-1364,1486,5980,-16222,1014
4269,16827426,-5401,-1398,901,4680,-15333,1198
4270,16827436,-5746,-2022,18,3074,-14716,867
4271,16827446,-5803,-2791,-1296,681,-14669,796
4272,16827456,-5135,-3851,-3938,-1929,-15006,634
4273,16827466,-4587,-4883,-7719,-3381,-14840,924
4274,16827476,-4725,-4003,-10853,-5627,-13963,923
4275,16827486,-4434,-3508,-9917,-1756,-9795,-950
4276,16827496,-3816,-3662,-6933,3363,-2384,-2497
4277,16827506,-3022,-2753,-4769,3469,3367,-4188
4278,16827516,-2500,-1794,-3751,1605,5420,-4583
4279,16827526,-2072,-936,-3450,-250,5786,-3953
4280,16827536,-1720,-645,-3010,-88,6162,-3503
4281,16827546,-1390,-464,-2828,623,6935,-3551
4282,16827556,-1175,-429,-2416,1421,8137,-3726
4283,16827566,-1093,-271,-1968,1901,9423,-3815
4284,16827576,-1233,-203,-1262,1977,10650,-3523
4285,16827586,-1551,-426,-16,1879,12091,-2850
4286,16827596,-2174,-587,1306,768,13289,-2006
4287,16827606,-2974,-525,2725,-801,14206,-945
4288,16827616,-3600,-820,4700,-2445,15110,30
4289,16827626,-3488,-1065,6178,-4908,16105,768
4290,16827623,-3487,-1066,6179,-4908,16105,878
4291,16827633,-3351,-2245,7789,-6103,16373,1129
4292,16827643,-2970,-3666,7979,-5927,14729,-14
4293,16827653,-2088,-4168,7840,-4965,9910,-1781
4294,16827663,-1428,-3945,6151,-5201,3608,-1359
4295,16827673,-2608,-3794,5109,-3574,-3684,1792
4296,16827683,-2533,-3315,4858,732,-8573,2236
4297,16827693,-2380,-2418,4171,3229,-11697,1194
4298,16827703,-2527,-2052,3698,4841,-13662,1393
4299,16827713,-2900,-1890,3325,5646,-14968,1974
4300,16827723,-3360,-1809,2893,5216,-15635,2293
4301,16827733,-3935,-1546,2252,3901,-15807,2527
4302,16827743,-4440,-1148,1636,2083,-15711,2622
4303,16827753,-4937,-743,878,285,-15431,2732
4304,16827763,-5314,-392,162,-1511,-15032,2737
4305,16827773,-5661,-424,-965,-3039,-14327,2733
4306,16827783,-5797,-2447,-3677,-3780,-13427,2701
4307,16827793,-4999,-3732,-8952,-5682,-12214,2892
4308,16827803,-5661,-5470,-12149,-3858,-10761,3041
4309,16827813,-4717,-5255,-9851,898,-5848,824
4310,16827823,-3958,-5086,-5630,5518,1925,-2589
4311,16827833,-3360,-3543,-3472,4207,6142,-4608
4312,16827843,-2719,-1726,-3045,141,6644,-5776
4313,16827853,-2356,-630,-3038,-1942,6566,-5288
4314,16827863,-2032,-369,-2753,-666,7191,-4792
4315,16827873,-1722,-322,-2344,1435,8470,-4866
4316,16827870,-1722,-322,-2344,1435,8470,-4724
4317,16827880,-1381,-282,-1896,2816,9661,-4853
4318,16827890,-1308,-431,-1165,3016,10620,-4566
4319,16827900,-1830,-526,-247,2018,11541,-3557
4320,16827910,-2444,-689,830,571,12723,-2342
4321,16827920,-3054,-726,2108,-750,14241,-1260
4322,16827930,-3627,-1025,3129,-1911,15683,-381
4323,16827940,-4174,-1381,4517,-3299,16728,465
4324,16827950,-4078,-2015,6042,-4657,17340,789
4325,16827960,-3511,-2916,7935,-4597,16935,-248
4326,16827970,-2360,-3483,8948,-3648,14198,-2775
4327,16827980,-956,-3220,7924,-3665,8505,-5009
4328,16827990,-1300,-2587,5676,-4598,812,-1954
4329,16828000,-2137,-2459,5404,-1206,-6198,1969
4330,16828010,-2245,-2259,4825,2364,-10603,2668
4331,16828020,-2292,-1979,4332,4393,-12998,2615
4332,16828030,-2571,-1852,4091,6069,-14719,2883
4333,16828040,-3059,-1816,3796,6497,-15828,3114
4334,16828050,-3719,-1702,3386,5537,-16437,3457
4335,16828060,-4423,-1367,2754,3811,-16728,3799
4336,16828070,-5036,-1077,1949,1306,-16783,3942
4337,16828080,-5516,-759,1100,-1029,-16433,3945
4338,16828090,-5784,-556,283,-2953,-15792,3670
4339,16828100,-5895,-872,-1189,-4015,-14952,3214
4340,16828110,-5334,-2535,-4500,-5187,-14195,2307
4341,16828120,-5601,-4558,-10276,-7190,-13093,3586
4342,16828117,-5601,-4559,-10276,-7189,-13093,3589
4343,16828127,-6342,-5477,-12849,-5440,-10938,3472
4344,16828137,-5379,-4716,-8953,494,-4241,-348
4345,16828147,-4273,-3811,-4614,5562,5568,-4099
4346,16828157,-3356,-2507,-2693,4570,9649,-6774
4347,16828167,-2511,-1073,-2291,1464,9270,-7081
4348,16828177,-2152,-571,-1969,220,8142,-5978
4349,16828187,-1817,-335,-2057,841,7920,-5244
4350,16828197,-1486,-279,-1987,1828,8554,-5226
4351,16828207,-1235,-284,-1791,2656,9330,-5235
4352,16828217,-1298,-217,-1220,2806,10180,-5019
4353,16828227,-1486,-207,-367,2128,11269,-4618
4354,16828237,-1951,-315,763,965,12465,-3783
4355,16828247,-2473,-469,1806,-710,13802,-2656
4356,16828257,-2998,-506,2685,-2258,15100,-1430
4357,16828267,-3969,-1005,4003,-3616,16007,37
4358,16828277,-4302,-1429,5020,-5711,17045,1361
4359,16828287,-4525,-2988,6566,-7767,17998,1978
4360,16828297,-4106,-4403,7689,-8780,18166,1247
4361,16828307,-3009,-4481,7928,-7959,15517,-2751
4362,16828317,-1910,-4604,6976,-8792,10144,-6103
4363,16828327,-1668,-4137,4739,-9100,2460,-4007
4364,16828337,-2436,-3758,3827,-4650,-5823,-1112
4365,16828347,-2982,-2864,3042,-1611,-11200,800
4366,16828357,-2931,-2104,2409,880,-13808,824
4367,16828367,-2970,-1862,2410,4072,-15720,256
4368,16828363,-2969,-1863,2410,4072,-15720,261
4369,16828373,-3167,-2080,2813,6980,-16842,-26
4370,16828383,-3752,-2125,2790,7476,-16931,274
4371,16828393,-4468,-1744,2576,5555,-16849,776
4372,16828403,-5303,-1199,1875,2912,-17026,1181
4373,16828413,-6009,-563,406,122,-17260,1119
4374,16828423,-6472,-343,-1402,-1392,-16621,584
4375,16828433,-6022,-2422,-3542,-788,-14539,-854
4376,16828443,-4275,-4792,-7275,-1002,-12523,-914
4377,16828453,-4610,-6094,-11524,-2403,-12520,595
4378,16828463,-4537,-5205,-10588,449,-10155,248
4379,16828473,-3409,-5310,-6590,5641,-3031,-3621
4380,16828483,-2468,-3750,-4549,3901,2476,-6223
4381,16828493,-2468,-2080,-4063,-530,3908,-5586
4382,16828503,-2509,-688,-3875,-2691,4604,-4610
4383,16828513,-1673,-232,-3335,-1542,6521,-5253
4384,16828523,-1180,197,-2470,665,8340,-5278
4385,16828533,-691,358,-1818,1807,9201,-4911
4386,16828543,-451,312,-1249,1415,9894,-4136
4387,16828553,-619,20,-459,564,10598,-2767
4388,16828563,-1236,-403,640,-541,11474,-1368
4389,16828573,-2071,-467,1871,-1650,12483,190
4390,16828583,-2903,-377,3080,-2334,13689,1574
4391,16828593,-3837,-1122,5363,-2051,14800,2615
4392,16828603,-3986,-1749,8912,-2337,15982,2227
4393,16828613,-2999,-2783,10917,-1510,16684,-1024
4394,16828610,-2998,-2783,10918,-1509,16684,-927
4395,16828620,-1218,-2952,10197,-2670,12865,-5399
4396,16828630,-1011,-2556,7171,-5836,4292,-3505
4397,16828640,-2823,-2873,5811,-5679,-5208,2980
4398,16828650,-3122,-2922,5742,-423,-11502,5195
4399,16828660,-3043,-2370,5044,2876,-14371,2527
4400,16828670,-2935,-1979,4368,5229,-16031,1566
4401,16828680,-3202,-1687,3833,5853,-17081,1745
4402,16828690,-3837,-1456,3117,4826,-17988,2437
4403,16828700,-4511,-1171,2319,3001,-18256,2924
4404,16828710,-4983,-965,1497,1227,-17800,3123
4405,16828720,-5396,-498,454,-725,-16665,3250
4406,16828730,-5802,-646,-1060,-1942,-14806,2893
4407,16828740,-5622,-3081,-3179,-1596,-12206,1944
4408,16828750,-4370,-4671,-7689,-2886,-9912,1952
4409,16828760,-4949,-5563,-11304,-4271,-9377,3156
4410,16828770,-4965,-4798,-10090,-2167,-5810,2355
4411,16828780,-4765,-4909,-6209,2685,1898,-190
4412,16828790,-3902,-3540,-4265,2194,6677,-3743
4413,16828800,-3393,-2087,-3583,-543,8034,-4878
4414,16828810,-2793,-1162,-3207,-1327,7990,-4633
4415,16828820,-2425,-708,-2926,-378,8029,-4270
4416,16828830,-1955,-535,-2603,1052,8464,-4354
4417,16828840,-1657,-272,-2082,2102,9304,-4485
4418,16828850,-1477,-21,-1492,2213,10211,-4475
4419,16828860,-1527,94,-654,1449,11296,-4098
4420,16828857,-1527,94,-654,1449,11295,-3965
4421,16828867,-1988,-76,577,78,12641,-2880
4422,16828877,-2660,-238,1869,-1662,14106,-1153
4423,16828887,-3357,-343,3167,-3022,15545,732
4424,16828897,-4103,-914,4896,-4032,16946,2281
4425,16828907,-4139,-1695,5921,-6412,18582,3363
4426,16828917,-4335,-3127,6988,-8624,19380,4048
4427,16828927,-4099,-4792,7088,-9484,18814,3018
4428,16828937,-3127,-4819,6999,-10217,15437,-207
4429,16828947,-3085,-5336,5341,-12210,10158,-2156
4430,16828957,-3354,-6072,3859,-10771,3314,-1211
4431,16828967,-3456,-5165,2730,-8000,-4009,-1448
4432,16828977,-3971,-3593,1608,-6677,-9327,-1605
4433,16828987,-3815,-2212,918,-4730,-12032,-2594
4434,16828997,-3273,-1498,636,-1749,-12947,-3790
4435,16829007,-3337,-1278,332,1071,-13622,-4085
4436,16829017,-3621,-1297,300,3369,-14718,-4063
4437,16829027,-4121,-1348,484,4647,-15476,-4046
4438,16829037,-5117,-1123,150,4216,-16005,-3770
4439,16829047,-6058,-967,-742,3613,-16576,-3760
4440,16829057,-6614,-1587,-2549,2732,-16967,-4041
4441,16829067,-6990,-2682,-5554,249,-16852,-3612
4442,16829077,-7288,-3520,-8753,-1935,-16778,-2995
4443,16829087,-7203,-3915,-10313,-481,-15325,-3541
4444,16829097,-6247,-3796,-9121,2620,-9799,-5460
4445,16829107,-4663,-2517,-7543,3924,-3411,-8196
