sequence,timestamp_ms,accel_x,accel_y,accel_z,gyro_x,gyro_y,gyro_z
13988,19075689,-7337,-6263,6246,-5962,-6688,6855
13989,19075699,-6483,-4898,6557,3888,-10740,1873
13990,19075709,-5758,-2616,4602,3670,-13324,-2691
13991,19075719,-5718,-705,2342,1576,-14552,-3961
13992,19075729,-5628,87,330,-136,-16050,-3247
13993,19075739,-5899,140,-819,-255,-17063,-2765
13994,19075749,-5674,233,-1586,912,-16887,-2353
13995,19075759,-5701,-436,-2319,2716,-16011,-1856
13996,19075769,-6678,-3780,-4386,3147,-14915,-1369
13997,19075779,-6722,-4279,-7525,-735,-14251,-291
13998,19075789,-7231,-4285,-9813,-2781,-13389,-768
13999,19075799,-6593,-2696,-9666,-2925,-8648,-4018
14000,19075809,-5086,-531,-7435,-1406,1499,-7214
14001,19075819,-3702,1039,-4377,1247,10068,-8172
14002,19075829,-2831,2270,-2501,2668,13483,-8170
14003,19075839,-2716,2185,-1322,3064,13766,-6383
14004,19075849,-3652,1772,463,3056,13520,-3547
14005,19075859,-4819,1546,3055,1917,15017,-1516
14006,19075869,-6450,2191,7300,122,18722,821
14007,19075879,-5946,1031,13698,-927,23557,2494
14008,19075889,-3381,-857,13557,-4168,25509,1869
14009,19075899,-4211,-2607,10846,-11714,18628,3738
14010,19075909,-5266,-3982,7123,-13280,8262,5980
14011,19075919,-6271,-5264,4515,-12794,665,5972
14012,19075929,-6152,-7164,6195,-1602,-5874,5229
14013,19075939,-5789,-4423,5456,3689,-9232,-768
14014,19075936,-5789,-4423,5456,3689,-9232,-574
14015,19075946,-5217,-2174,3928,3491,-11674,-4442
14016,19075956,-4964,-733,2467,2435,-13281,-5513
14017,19075966,-4765,-89,786,1302,-14822,-4993
14018,19075976,-4691,81,-247,1242,-16003,-4298
14019,19075986,-4611,266,-1006,2030,-16275,-3550
14020,19075996,-4793,-682,-1530,3210,-15725,-2778
14021,19076006,-5089,-2574,-3099,3560,-14405,-2258
14022,19076016,-4946,-3003,-6298,-139,-12715,-1870
14023,19076026,-4876,-3848,-8670,-1415,-11009,-1937
14024,19076036,-4480,-3087,-9749,-1300,-7496,-3182
14025,19076046,-3636,-1713,-8300,419,-728,-5057
14026,19076056,-2646,8,-5463,1228,5895,-6449
14027,19076066,-1926,1279,-3565,1394,9950,-6466
14028,19076076,-1800,1382,-2067,1267,11706,-4885
14029,19076086,-2538,859,-564,1188,12703,-2313
14030,19076096,-3856,473,1494,-76,14133,195
14031,19076106,-5519,229,3967,-1929,16841,2442
14032,19076116,-6450,-180,7450,-3746,20092,4455
14033,19076126,-5578,-1460,11186,-4564,21962,4752
14034,19076136,-4083,-2542,10837,-6648,20045,2744
14035,19076146,-4624,-3602,8421,-10714,12961,2540
14036,19076156,-4728,-4439,4791,-11216,3956,3159
14037,19076166,-7115,-6270,5275,-4738,-5326,5397
14038,19076176,-6251,-5201,6147,3807,-10342,1433
14039,19076186,-5729,-2877,4450,3856,-13414,-2817
14040,19076182,-5728,-2877,4450,3856,-13414,-2662
14041,19076192,-5494,-1174,2719,2137,-14906,-3921
14042,19076202,-5222,-718,1238,882,-16324,-3269
14043,19076212,-4902,-622,134,637,-16706,-2959
14044,19076222,-4407,-927,-186,1545,-15857,-2730
14045,19076232,-3971,-1445,-474,2465,-14035,-2072
14046,19076242,-3721,-2460,-776,2614,-11908,-1326
14047,19076252,-3222,-3315,-1137,1871,-10191,-609
14048,19076262,-2500,-3282,-1491,-215,-8758,-504
14049,19076272,-1822,-2640,-1835,-2425,-7087,-798
14050,19076282,-1126,-2099,-1732,-3727,-4949,-1378
14051,19076292,-582,-1790,-1341,-3641,-2667,-1689
14052,19076302,-281,-1772,-921,-3001,-599,-1681
14053,19076312,-64,-1668,-631,-2517,866,-1602
14054,19076322,61,-1531,-497,-2475,1730,-1667
14055,19076332,208,-1366,-465,-2587,2298,-1584
14056,19076342,382,-1175,-327,-2531,3007,-1436
14057,19076352,497,-1105,-54,-2296,3882,-1243
14058,19076362,570,-1044,41,-2052,4778,-1034
14059,19076372,484,-1046,209,-1646,5768,-901
14060,19076382,448,-1184,635,-1049,6825,-1007
14061,19076392,406,-1225,959,-1115,7418,-1269
14062,19076402,454,-1196,1223,-1755,7517,-1485
14063,19076412,412,-1212,1343,-2537,7320,-1616
14064,19076422,251,-1347,1277,-3293,7029,-1604
14065,19076432,136,-1372,1145,-3606,6786,-1793
14066,19076429,136,-1373,1145,-3605,6786,-1555
14067,19076439,111,-1465,1108,-3463,6462,-1766
14068,19076449,30,-1554,1057,-3085,6207,-2305
14069,19076459,58,-1615,1109,-2636,5913,-3013
14070,19076469,348,-1470,1040,-2521,5122,-3620
14071,19076479,503,-1349,866,-2495,3739,-3885
14072,19076489,493,-1273,474,-2525,2272,-3603
14073,19076499,406,-1128,15,-2554,1134,-3138
14074,19076509,436,-1183,-325,-2343,726,-2857
14075,19076519,454,-1288,-441,-2094,751,-2654
14076,19076529,464,-1329,-472,-1919,703,-2378
14077,19076539,563,-1266,-533,-1727,524,-2112
14078,19076549,613,-1281,-622,-1444,284,-1804
14079,19076559,568,-1318,-733,-1122,-12,-1476
14080,19076569,551,-1416,-797,-788,-268,-1239
14081,19076579,622,-1381,-815,-572,-451,-1125
14082,19076589,641,-1295,-927,-598,-657,-1101
14083,19076599,627,-1111,-1165,-868,-842,-1135
14084,19076609,647,-980,-1262,-841,-808,-1155
14085,19076619,615,-903,-1260,-627,-613,-1135
14086,19076629,538,-922,-1136,-337,-317,-1128
14087,19076639,413,-1045,-1012,-188,-164,-1055
14088,19076649,385,-1212,-1064,-247,-275,-770
14089,19076659,314,-1364,-1250,-385,-676,-311
14090,19076669,215,-1523,-1465,-375,-1186,213
14091,19076679,71,-1651,-1696,38,-1574,512
14092,19076676,71,-1652,-1696,38,-1574,657
14093,19076686,131,-1712,-1743,488,-1506,627
14094,19076696,93,-1745,-1647,809,-1199,306
14095,19076706,137,-1657,-1503,893,-856,16
14096,19076716,233,-1512,-1442,695,-662,-247
14097,19076726,218,-1385,-1441,520,-670,-212
14098,19076736,201,-1382,-1451,528,-660,-140
14099,19076746,251,-1365,-1440,550,-524,-150
14100,19076756,320,-1368,-1364,555,-405,-155
14101,19076766,277,-1416,-1320,629,-481,-26
14102,19076776,284,-1396,-1302,756,-591,125
14103,19076786,313,-1284,-1240,771,-656,268
14104,19076796,305,-1240,-1047,910,-610,496
14105,19076806,354,-952,-856,690,-592,608
14106,19076816,209,-399,-736,344,-984,1311
14107,19076826,297,220,-398,696,-1359,2557
14108,19076836,-1189,-7243,-2297,1625,-1590,3700
14109,19076846,-2194,-1446,-3630,-6943,-2754,3148
14110,19076856,837,-963,-2700,-541,-645,-2511
14111,19076866,932,-1484,-1290,2247,877,-1515
14112,19076876,139,-1953,-1734,1972,-171,1184
14113,19076886,149,-1783,-2051,1638,-778,1148
14114,19076896,331,-1560,-1864,1782,-329,297
14115,19076906,-395,-3111,-2381,1945,-130,473
14116,19076916,-185,-2474,-1962,1046,-88,868
14117,19076926,-367,-2051,-2106,2280,422,512
14118,19076922,-366,-2052,-2106,2280,422,513
14119,19076932,-356,-1961,-2375,1063,308,-180
14120,19076942,-315,-1596,-2359,1669,514,-913
14121,19076952,-259,-1459,-2294,2262,649,-955
14122,19076962,-236,-1342,-2297,2524,706,-978
14123,19076972,-264,-1332,-2335,2983,714,-1025
14124,19076982,-256,-1358,-2285,3676,734,-1178
14125,19076992,-128,-1226,-2274,4180,871,-1475
14126,19077002,-93,-1094,-2236,4693,1012,-1662
14127,19077012,59,-985,-2093,5182,1260,-1830
14128,19077022,139,-910,-2007,5388,1313,-1702
14129,19077032,260,-844,-1927,5461,1305,-1481
14130,19077042,287,-822,-1998,5514,1337,-1256
14131,19077052,214,-944,-1973,5932,1279,-987
14132,19077062,301,-882,-1904,6401,1571,-1094
14133,19077072,371,-769,-1778,6258,1812,-1444
14134,19077082,404,-593,-1767,5952,2147,-1636
14135,19077092,436,-534,-1660,5709,2656,-1657
14136,19077102,467,-525,-1510,5408,3342,-1708
14137,19077112,497,-476,-1322,4822,4077,-1730
14138,19077122,394,-433,-1171,4127,4605,-1563
14139,19077132,327,-507,-1015,3453,5114,-1349
14140,19077142,75,-310,-1008,2417,5639,-1142
14141,19077152,-301,-243,-739,1730,6298,-927
14142,19077162,-658,-172,91,1023,7143,-581
14143,19077172,-1051,-235,1235,-422,8099,-256
14144,19077169,-1050,-235,1235,-422,8098,-136
14145,19077179,-1252,-388,2693,-2298,8778,470
14146,19077189,-1311,-402,3744,-4739,9149,917
14147,19077199,-1480,-597,4625,-7226,8721,1693
14148,19077209,-1979,-1179,4975,-9124,7445,2835
14149,19077219,-3299,-2397,5357,-8540,4987,4288
14150,19077229,-4183,-2860,5383,-7727,1531,5332
14151,19077239,-4701,-3650,5346,-5673,-2136,5850
14152,19077249,-5306,-4309,5724,-2184,-6577,6823
14153,19077259,-5755,-4592,6131,1436,-10976,7070
14154,19077269,-5595,-4074,5860,3722,-14209,6060
14155,19077279,-5464,-3408,5140,4698,-16585,5068
14156,19077289,-5580,-2795,4069,4391,-18220,4476
14157,19077299,-5832,-2342,3091,3440,-18936,3970
14158,19077309,-6122,-2015,2192,2325,-18634,3516
14159,19077319,-6224,-1798,1484,1365,-17583,3006
14160,19077329,-6055,-1504,569,544,-16314,2437
14161,19077339,-5976,-1271,-535,-90,-15666,2118
14162,19077349,-6287,-1760,-2203,-241,-15619,2224
14163,19077359,-5551,-5469,-5882,-716,-15695,2342
14164,19077369,-6684,-5995,-11595,-5176,-16336,2414
14165,19077379,-7768,-4722,-13850,-6340,-15333,1510
14166,19077389,-7900,-4190,-10230,-534,-7844,-2000
14167,19077399,-6335,-2406,-6699,3064,3910,-5906
14168,19077409,-4939,-1210,-4780,4087,10386,-8252
14169,19077419,-3872,-553,-3718,4407,10680,-8452
14170,19077416,-3872,-554,-3717,4407,10680,-8255
14171,19077426,-3454,-226,-2845,4654,9342,-7360
14172,19077436,-3294,306,-2464,4861,9059,-7200
14173,19077446,-2903,986,-2146,5663,9829,-7691
14174,19077456,-2793,1625,-1707,6065,10748,-8114
14175,19077466,-3124,2070,-887,5117,11858,-7755
14176,19077476,-4907,2608,1867,2964,13383,-6344
14177,19077486,-7823,2354,9856,-354,15998,-4347
14178,19077496,-3947,2803,17991,-5749,21048,-2895
14179,19077506,-1257,822,16581,-13720,21106,-273
14180,19077516,-6450,-1602,12706,-18970,10611,6949
14181,19077526,-4084,-4456,8542,-17388,4886,8646
14182,19077536,-9033,-9657,8813,-9886,-1741,8375
14183,19077546,-5511,-8036,9914,2178,-7196,4644
14184,19077556,-5428,-3921,6916,2330,-11666,-1919
14185,19077566,-4780,-1633,5546,4218,-13944,-3238
14186,19077576,-5222,-786,3911,3003,-16036,-2227
14187,19077586,-5534,-260,2278,1929,-16527,-1162
14188,19077596,-6099,-173,1068,871,-16046,-187
14189,19077606,-6380,343,-113,528,-15398,1176
14190,19077616,-7156,-160,-971,404,-15068,1770
14191,19077626,-7673,-1180,-3325,488,-14741,1931
14192,19077636,-7907,-2036,-7412,-3489,-14960,1817
14193,19077646,-8812,-3230,-13125,-6866,-16217,2899
14194,19077656,-10712,-4089,-15252,-6367,-16402,3527
14195,19077666,-9692,-3221,-11662,-2167,-8741,-256
14196,19077662,-9691,-3221,-11662,-2167,-8741,-255
14197,19077672,-7797,-905,-7787,490,4402,-4038
14198,19077682,-5907,756,-4987,1892,13366,-6758
14199,19077692,-4441,1666,-3283,3954,14871,-6967
14200,19077702,-3971,1987,-1900,5810,14059,-5982
14201,19077712,-3884,1710,-973,6310,13966,-5055
14202,19077722,-4393,1641,690,4844,14991,-4257
14203,19077732,-6656,1800,4538,2393,17556,-2276
14204,19077742,-8267,1824,10962,-1861,22109,375
14205,19077752,-5434,610,15153,-7503,27222,3058
14206,19077762,-4513,-1151,13088,-15708,25566,7149
14207,19077772,-7269,-4778,9033,-22089,18152,11681
14208,19077782,-5255,-3659,3865,-23462,11463,10373
14209,19077792,-14563,-14494,1852,-15988,868,9275
14210,19077802,-9588,-11397,4875,266,-5707,3733
14211,19077812,-8133,-5034,2258,1376,-10224,-7116
14212,19077822,-6272,-1987,1385,3715,-12437,-11012
14213,19077832,-5626,-455,1079,5462,-15558,-10362
14214,19077842,-6000,316,541,6219,-17959,-9434
14215,19077852,-6748,732,-183,7128,-18589,-8801
14216,19077862,-7741,518,-1875,7160,-18437,-8385
14217,19077872,-7833,284,-4738,6019,-18170,-7332
14218,19077882,-7837,-1218,-7452,3769,-18281,-4169
14219,19077892,-8140,-4568,-11719,2740,-18265,-739
14220,19077902,-8867,-5780,-16007,-988,-16206,-109
14221,19077912,-8446,-4443,-14314,732,-8221,-3329
14222,19077909,-8445,-4443,-14314,733,-8221,-3125
14223,19077919,-6750,-1026,-9348,1675,4092,-8640
14224,19077929,-4704,1691,-5779,1509,11828,-11118
14225,19077939,-3648,2742,-3745,1503,13488,-9207
14226,19077949,-3527,2295,-2110,2890,13403,-5995
14227,19077959,-3806,1914,-164,2742,14274,-4032
14228,19077969,-5153,1294,2659,180,16770,-2176
14229,19077979,-8261,1510,8552,-4402,20478,1097
14230,19077989,-7973,250,16597,-7985,25409,4408
14231,19077999,-5286,-3358,16493,-12328,27434,4513
14232,19078009,-8398,-6997,12651,-17994,18549,6527
14233,19078019,-5872,-7563,5618,-19787,8064,5472
14234,19078029,-10456,-13142,7834,-6551,-5806,9340
14235,19078039,-8724,-7899,5851,5453,-10699,-584
14236,19078049,-7408,-3917,3473,6450,-15498,-5852
14237,19078059,-6960,-2076,3091,8253,-17885,-6453
14238,19078069,-6540,80,929,6026,-18433,-6000
14239,19078079,-6928,1358,-1122,5052,-17983,-5875
14240,19078089,-7146,923,-3435,5942,-16975,-4959
14241,19078099,-6964,-2505,-6018,5980,-15782,-3693
14242,19078109,-5759,-5309,-11813,1338,-15767,-752
14243,19078119,-7318,-5041,-17367,-1406,-17404,2422
14244,19078129,-7277,-5784,-18913,-2,-10430,740
14245,19078139,-6429,-4286,-13338,3517,2408,-3871
14246,19078149,-5281,-1011,-8120,3796,10274,-7797
14247,19078159,-4346,1418,-5424,1956,13220,-9220
14248,19078156,-4345,1418,-5424,1957,13219,-9043
14249,19078166,-3945,1389,-3420,2376,13999,-7079
14250,19078176,-5290,386,-335,3627,14201,-4988
14251,19078186,-10474,3390,8030,2290,14614,-3937
14252,19078196,-6660,3455,22886,1656,18380,-5758
14253,19078206,-1394,2752,22459,-7052,21681,-6849
14254,19078216,-4465,-2168,17590,-12099,7687,3571
14255,19078226,-4785,-3846,12264,-11837,-1652,7915
14256,19078236,-3910,-6219,12133,1617,-7050,5695
14257,19078246,-3613,-3190,8614,6505,-11898,1751
14258,19078256,-4251,-1060,5281,5422,-15660,1251
14259,19078266,-5122,-121,2354,3132,-16872,1787
14260,19078276,-6018,444,-105,1301,-16588,2496
14261,19078286,-6809,1570,-2756,423,-15795,3427
14262,19078296,-7307,-2209,-6033,2125,-14200,4318
14263,19078306,-6715,-5768,-12430,939,-12471,5791
14264,19078316,-8423,-7137,-16964,-3211,-12368,7014
14265,19078326,-8723,-7234,-15372,-1248,-6199,4077
14266,19078336,-7916,-4694,-10630,1486,5422,-2851
14267,19078346,-6192,-1422,-5775,1812,13097,-8079
14268,19078356,-5220,703,-3616,1752,14755,-9103
14269,19078366,-4866,842,-1825,3261,14199,-7743
14270,19078376,-6575,871,403,4600,14165,-5866
14271,19078386,-11445,2992,8277,4315,15656,-4045
14272,19078396,-8448,3562,20347,3070,20266,-6143
14273,19078406,-765,2988,19359,-5518,26023,-9220
14274,19078402,-765,2987,19359,-5518,26022,-9165
14275,19078412,-3916,-1135,16892,-11298,13213,-280
14276,19078422,-4446,-2163,10687,-13694,395,7589
14277,19078432,-5448,-5737,9792,-5914,-3915,7422
14278,19078442,-3621,-4858,10035,6205,-8397,3608
14279,19078452,-4287,-2052,7157,7132,-13453,587
14280,19078462,-5007,-376,4644,5434,-16426,1183
14281,19078472,-5957,136,2233,2929,-17838,1671
14282,19078482,-6665,945,60,883,-17344,2576
14283,19078492,-7413,421,-1914,175,-15909,3293
14284,19078502,-7042,-3763,-4333,949,-13955,3236
14285,19078512,-5794,-4305,-11080,-4518,-12400,3047
14286,19078522,-7805,-4969,-15329,-6266,-13873,4620
14287,19078532,-8295,-5314,-14858,-3106,-9777,2815
14288,19078542,-7879,-3828,-11017,394,1538,-2035
14289,19078552,-6021,-1419,-6289,2403,10567,-6221
14290,19078562,-4667,645,-4065,2707,13545,-8106
14291,19078572,-4279,1541,-2393,3669,13344,-7354
14292,19078582,-4626,1304,-706,5489,13254,-5908
14293,19078592,-6267,1528,1501,4954,14383,-4385
14294,19078602,-9980,2508,7361,3142,16824,-2639
14295,19078612,-10345,3043,18095,796,21342,-2358
14296,19078622,-1163,-491,19630,-4292,26874,-7054
14297,19078632,-4361,-3335,16152,-11180,17178,-3855
14298,19078642,-3545,-2036,10369,-13250,2649,3466
14299,19078652,-6733,-3917,7752,-9141,-4661,6147
14300,19078649,-6733,-3917,7752,-9141,-4662,6210
14301,19078659,-4609,-3913,8545,5665,-10526,5090
14302,19078669,-5209,-2531,6168,7823,-14694,1248
14303,19078679,-5438,-1062,4166,6813,-17451,1786
14304,19078689,-6182,-482,2166,3928,-18270,3064
14305,19078699,-6691,316,297,1352,-17911,3477
14306,19078709,-7076,37,-1951,336,-15708,3197
14307,19078719,-5981,-4713,-5596,1476,-12694,2490
14308,19078729,-4367,-5552,-11521,-3998,-11312,1536
14309,19078739,-6797,-6714,-14239,-5871,-13074,2711
14310,19078749,-6933,-4696,-14265,-5731,-9451,-77
14311,19078759,-6475,-906,-11873,-5281,1270,-5810
14312,19078769,-4903,905,-6986,-14,10886,-6810
14313,19078779,-4004,1402,-3955,4325,13927,-5897
14314,19078789,-4036,1195,-1935,4850,13715,-4632
14315,19078799,-4881,688,-374,4124,14110,-3412
14316,19078809,-7105,799,2228,2409,15904,-1938
14317,19078819,-10277,2223,9618,614,18587,-170
14318,19078829,-6823,-8,18402,-636,23384,-880
14319,19078839,-3261,-2423,15771,-7302,25161,-3936
14320,19078849,-5291,-3458,13939,-9911,12085,358
14321,19078859,-4415,-3301,8651,-13414,1710,4040
14322,19078869,-6780,-5852,7843,-6438,-4678,6221
14323,19078879,-5291,-4374,7555,2833,-9515,3038
14324,19078889,-5228,-2032,5463,4939,-13624,675
14325,19078899,-5469,-1032,3450,3602,-15882,768
14326,19078896,-5469,-1032,3450,3602,-15882,871
14327,19078906,-5663,146,1341,1451,-16877,888
14328,19078916,-6110,796,-484,-93,-16486,825
14329,19078926,-6125,583,-2401,-438,-14806,502
14330,19078936,-5608,-1333,-4348,-636,-12647,-138
14331,19078946,-4685,-2667,-8589,-2441,-11916,474
14332,19078956,-5704,-4415,-12590,-3090,-14098,2303
14333,19078966,-7040,-4328,-15518,-4214,-12849,2182
14334,19078976,-7025,-3493,-13802,-1382,-4415,-1826
14335,19078986,-5798,-1889,-8721,3317,6113,-5063
14336,19078996,-4420,157,-5557,4911,11173,-7172
14337,19079006,-3922,1575,-3686,4032,12049,-7363
14338,19079016,-4012,1524,-2258,4496,12217,-5731
14339,19079026,-4860,1022,-747,4018,13033,-4535
14340,19079036,-6411,2056,1933,1510,14697,-3297
14341,19079046,-8810,2244,9105,-945,17303,-1245
14342,19079056,-6649,1356,14349,-4469,21998,636
14343,19079066,-3987,-2445,14569,-7887,22182,1345
14344,19079076,-6834,-4577,12212,-12879,12656,5148
14345,19079086,-5674,-4834,7906,-13051,4841,5517
14346,19079096,-7661,-7540,6652,-9382,-2527,5609
14347,19079106,-6203,-6285,6600,1298,-8808,3422
14348,19079116,-6098,-3580,4224,3424,-13589,-568
14349,19079126,-5961,-1578,2739,3508,-16140,-1963
14350,19079136,-6107,-294,859,1866,-17067,-2644
14351,19079146,-6153,700,-1052,623,-16990,-3329
14352,19079142,-6153,700,-1052,624,-16990,-3139
14353,19079152,-6176,848,-2729,633,-16247,-3413
14354,19079162,-5972,-265,-4470,1428,-15442,-2942
14355,19079172,-5361,-2034,-8590,115,-14375,-1106
14356,19079182,-5881,-4409,-12561,536,-13836,828
14357,19079192,-6154,-5644,-14059,1904,-9492,219
14358,19079202,-5573,-4435,-11353,3634,-861,-3237
14359,19079212,-4455,-1337,-7546,3767,6407,-6964
14360,19079222,-3411,1151,-5481,2623,10225,-8451
14361,19079232,-3308,1699,-3800,2661,11662,-6987
14362,19079242,-3872,974,-2208,3112,12947,-4890
14363,19079252,-5627,95,-476,2486,14477,-3215
14364,19079262,-7974,1187,2527,821,16110,-2142
14365,19079272,-10796,2377,11692,493,18231,-810
14366,19079282,-4621,-80,18434,224,22624,-4018
14367,19079292,-2259,-1219,16280,-8161,20136,-5096
14368,19079302,-4564,-2096,10805,-11460,5419,2105
14369,19079312,-5618,-2535,5554,-12843,-3369,5300
14370,19079322,-5927,-4948,6432,-1320,-8502,5439
14371,19079332,-5148,-3521,5627,5545,-11155,2378
14372,19079342,-5270,-1950,3924,5132,-13581,1282
14373,19079352,-5597,-815,1967,3065,-15135,1402
14374,19079362,-5786,16,161,1186,-15634,1303
14375,19079372,-5914,705,-1915,558,-15269,1405
14376,19079382,-5871,-1584,-4132,1354,-13999,1548
14377,19079392,-4997,-4189,-7430,673,-12258,2049
14378,19079389,-4996,-4189,-7430,673,-12259,2074
14379,19079399,-5246,-5876,-10748,-2138,-11399,2639
14380,19079409,-5341,-6118,-12089,-1300,-8152,1431
14381,19079419,-4665,-4868,-10282,1269,-455,-2502
14382,19079429,-3881,-2566,-7275,2722,6172,-5725
14383,19079439,-3291,-602,-5414,2271,9743,-7410
14384,19079449,-3179,555,-3887,1804,11247,-7131
14385,19079459,-3319,655,-2510,2393,12161,-5914
14386,19079469,-4194,521,-1236,2015,12929,-4665
14387,19079479,-6046,113,380,1379,13763,-3282
14388,19079489,-8080,1714,3966,580,15052,-2008
14389,19079499,-8727,1413,11257,248,16802,-1702
14390,19079509,-3350,-1011,15229,-2095,20068,-3161
14391,19079519,-2395,-2752,12895,-7460,16336,-3485
14392,19079529,-4256,-2379,8383,-10799,4513,344
14393,19079539,-5222,-2331,4829,-12041,-2747,4413
14394,19079549,-5580,-3477,4041,-4512,-7442,3731
14395,19079559,-5366,-3224,3888,2264,-10943,2097
14396,19079569,-5369,-1885,2702,2488,-13431,674
14397,19079579,-5577,-773,1539,1176,-15055,223
14398,19079589,-5980,-43,449,-440,-15803,-169
14399,19079599,-6201,-117,-1173,-1622,-15328,-1058
14400,19079609,-5815,-666,-4006,-3078,-13960,-2126
14401,19079619,-4861,-1695,-7751,-3446,-12482,-2706
14402,19079629,-3324,-3211,-10897,-611,-10198,-2704
14403,19079639,-3119,-4366,-11760,3346,-6626,-2049
14404,19079636,-3118,-4366,-11760,3347,-6626,-2027
14405,19079646,-3179,-3857,-10116,4686,-2083,-2819
14406,19079656,-2887,-1958,-7451,4087,2835,-4448
14407,19079666,-2467,-522,-5619,3439,6179,-5180
14408,19079676,-2298,91,-4539,2977,7912,-4874
14409,19079686,-2541,296,-3377,2835,9083,-4098
14410,19079696,-3120,250,-2198,2701,10180,-3360
14411,19079706,-3769,402,-966,1961,11294,-2723
14412,19079716,-4740,914,580,894,12313,-1700
14413,19079726,-5765,1133,3745,842,12956,-322
14414,19079736,-5492,555,8126,841,13766,317
14415,19079746,-4198,-972,11045,-1057,15323,726
14416,19079756,-3331,-3450,11501,-1850,12807,305
14417,19079766,-3923,-3411,9385,-3764,5871,698
14418,19079776,-4019,-2727,6419,-5320,-1602,1861
14419,19079786,-4890,-2614,5203,-2500,-6752,2582
14420,19079796,-4713,-2479,4826,2674,-10062,1866
14421,19079806,-4649,-1656,3741,3879,-12344,1134
14422,19079816,-4889,-1003,2519,3129,-14028,1163
14423,19079826,-5071,-363,1426,1768,-15027,1376
14424,19079836,-5506,98,382,625,-15329,1574
14425,19079846,-5917,730,-497,-107,-15151,1746
14426,19079856,-6556,-1068,-1654,195,-14345,1486
14427,19079866,-5644,-3219,-5048,-1719,-12782,995
14428,19079876,-4650,-4435,-10571,-5519,-12628,810
14429,19079886,-4422,-4208,-15277,-4953,-11484,-512
