sequence,timestamp_ms,accel_x,accel_y,accel_z,gyro_x,gyro_y,gyro_z
5200,18992314,702,-1859,668,872,-285,-163
5201,18992324,673,-1856,659,868,-278,-170
5202,18992334,638,-1864,652,859,-285,-184
5203,18992344,658,-1875,664,877,-284,-198
5204,18992354,680,-1887,652,848,-316,-201
5205,18992364,655,-1892,629,812,-356,-218
5206,18992374,651,-1901,623,785,-382,-239
5207,18992384,694,-1867,608,767,-397,-259
5208,18992394,709,-1879,604,751,-405,-266
5209,18992404,678,-1926,612,722,-393,-257
5210,18992414,668,-1964,662,663,-366,-246
5211,18992424,706,-1980,694,610,-341,-272
5212,18992434,680,-2000,733,550,-355,-309
5213,18992444,653,-2017,749,495,-416,-335
5214,18992454,688,-2026,732,450,-487,-361
5215,18992464,689,-2016,718,418,-550,-404
5216,18992474,683,-1993,702,375,-609,-462
5217,18992484,723,-1937,673,289,-676,-518
5218,18992494,797,-1900,647,201,-749,-563
5219,18992504,799,-1877,618,129,-832,-570
5220,18992514,819,-1860,586,45,-923,-528
5221,18992524,843,-1807,544,-45,-988,-488
5222,18992534,883,-1860,555,13,-1012,-471
5223,18992544,824,-1909,489,-56,-1071,-389
5224,18992554,848,-1937,502,-88,-1125,-326
5225,18992564,897,-1892,470,-74,-1137,-512
5226,18992561,897,-1892,471,-74,-1137,-378
5227,18992571,862,-1763,435,-39,-1217,-302
5228,18992581,1069,-1881,895,729,-1302,-184
5229,18992591,1017,-1948,1027,689,-1389,95
5230,18992601,1115,-1956,1186,607,-1506,-1
5231,18992611,1064,-1852,1137,200,-1863,-9
5232,18992621,1014,-1762,1039,-322,-2357,140
5233,18992631,971,-1622,796,-854,-2942,355
5234,18992641,800,-1521,483,-1308,-3428,646
5235,18992651,621,-1397,130,-1532,-3634,846
5236,18992661,591,-1369,-121,-1423,-3404,718
5237,18992671,572,-1375,-192,-1202,-2932,463
5238,18992681,552,-1391,-181,-956,-2453,237
5239,18992691,530,-1429,-195,-850,-2165,118
5240,18992701,509,-1498,-298,-884,-2167,166
5241,18992711,432,-1507,-428,-939,-2462,272
5242,18992721,355,-1471,-637,-993,-2840,384
5243,18992731,362,-1407,-846,-944,-3181,439
5244,18992741,322,-1404,-1066,-771,-3360,505
5245,18992751,242,-1455,-1280,-627,-3325,572
5246,18992761,210,-1501,-1377,-443,-3069,576
5247,18992771,205,-1537,-1440,-199,-2612,462
5248,18992781,176,-1533,-1469,-15,-2186,301
5249,18992791,173,-1522,-1456,137,-1829,181
5250,18992801,191,-1586,-1399,269,-1607,275
5251,18992811,183,-1580,-1386,217,-1508,256
5252,18992807,184,-1580,-1386,218,-1508,430
5253,18992817,132,-1664,-1423,143,-1486,568
5254,18992827,115,-1706,-1402,47,-1428,653
5255,18992837,145,-1686,-1421,-157,-1345,654
5256,18992847,121,-1637,-1451,-375,-1309,641
5257,18992857,70,-1573,-1466,-462,-1247,643
5258,18992867,84,-1590,-1477,-364,-1082,591
5259,18992877,73,-1617,-1465,-185,-854,526
5260,18992887,45,-1608,-1446,3,-665,483
5261,18992897,46,-1650,-1370,209,-480,416
5262,18992907,91,-1683,-1306,431,-295,323
5263,18992917,85,-1682,-1248,559,-224,257
5264,18992927,102,-1672,-1164,627,-230,229
5265,18992937,161,-1634,-1113,625,-197,203
5266,18992947,183,-1627,-1061,638,-179,209
5267,18992957,169,-1614,-1043,685,-175,217
5268,18992967,163,-1606,-1074,748,-202,233
5269,18992977,180,-1540,-1123,844,-199,247
5270,18992987,153,-1507,-1098,1074,-148,292
5271,18992997,181,-1590,-1072,1449,-52,450
5272,18993007,266,-2461,-1085,1600,-30,688
5273,18993017,-411,-1841,-1251,1464,-336,1332
5274,18993027,-53,-1712,-1359,322,-629,1025
5275,18993037,259,-1537,-1295,1043,-542,-47
5276,18993047,582,-2517,-1591,1172,-200,80
5277,18993057,21,-1613,-1248,858,-510,768
5278,18993054,22,-1613,-1247,859,-511,1018
5279,18993064,219,-1773,-1261,715,-350,-89
5280,18993074,119,-1593,-1253,740,-181,-98
5281,18993084,84,-1625,-1239,792,-227,-21
5282,18993094,41,-1592,-1223,827,-281,-52
5283,18993104,34,-1606,-1312,859,-260,-122
5284,18993114,56,-1583,-1230,963,-216,-168
5285,18993124,58,-1568,-1176,1083,-176,-212
5286,18993134,15,-1610,-1159,1104,-186,-182
5287,18993144,7,-1669,-1152,1106,-204,-154
5288,18993154,27,-1738,-1126,1061,-146,-198
5289,18993164,286,-2933,-1351,1003,-72,-298
5290,18993174,-96,-1345,-1046,297,-373,54
5291,18993184,288,-1706,-1157,978,207,-1308
5292,18993194,-89,-1580,-1308,907,118,-177
5293,18993204,220,-1764,-1331,256,-141,-339
5294,18993214,122,-1689,-1337,172,-98,-404
5295,18993224,193,-1599,-1279,305,29,-446
5296,18993234,267,-1509,-1233,402,71,-741
5297,18993244,298,-1502,-1181,491,38,-633
5298,18993254,328,-1505,-1153,584,-24,-484
5299,18993264,268,-1502,-1124,665,-89,-367
5300,18993274,261,-1514,-1129,800,-71,-398
5301,18993284,321,-1504,-1111,910,-5,-464
5302,18993294,285,-1527,-1109,916,-24,-421
5303,18993304,267,-1546,-1128,852,-70,-512
5304,18993300,268,-1547,-1128,853,-70,-381
5305,18993310,268,-1569,-1173,765,-151,-340
5306,18993320,276,-1570,-1222,675,-235,-300
5307,18993330,245,-1600,-1265,596,-288,-268
5308,18993340,219,-1578,-1302,568,-331,-250
5309,18993350,269,-1531,-1326,582,-366,-276
5310,18993360,266,-1511,-1360,624,-401,-288
5311,18993370,280,-1533,-1358,711,-425,-269
5312,18993380,288,-1530,-1356,764,-445,-249
5313,18993390,315,-1558,-1404,786,-463,-260
5314,18993400,330,-1623,-1399,854,-419,-300
5315,18993410,371,-1714,-1395,928,-331,-358
5316,18993420,432,-1796,-1427,907,-361,-426
5317,18993430,461,-1869,-1535,839,-462,-485
5318,18993440,406,-1947,-1741,748,-551,-506
5319,18993450,404,-2042,-2049,736,-573,-529
5320,18993460,404,-2141,-2390,741,-589,-544
5321,18993470,354,-2242,-2729,759,-569,-584
5322,18993480,352,-2305,-2851,1030,-455,-689
5323,18993490,411,-2418,-3020,1224,-132,-873
5324,18993500,335,-2627,-3153,1425,140,-954
5325,18993510,187,-2732,-3182,1467,378,-1122
5326,18993520,162,-2764,-3078,1603,960,-1477
5327,18993530,143,-2782,-2891,1615,1675,-1837
5328,18993540,142,-2759,-2613,1479,2517,-2173
5329,18993550,139,-2630,-2391,1262,3228,-2561
5330,18993547,140,-2630,-2391,1262,3228,-2490
5331,18993557,246,-2484,-2168,1155,3777,-2970
5332,18993567,397,-2266,-1863,1113,4283,-3406
5333,18993577,502,-2058,-1654,1024,4390,-3624
5334,18993587,523,-1939,-1556,998,4381,-3686
5335,18993597,493,-1805,-1491,1013,4514,-3758
5336,18993607,506,-1587,-1333,999,4759,-3897
5337,18993617,561,-1423,-1204,1042,4897,-4042
5338,18993627,545,-1303,-1091,1154,5010,-4004
5339,18993637,531,-1228,-908,1414,5331,-3945
5340,18993647,485,-1106,-684,1613,5683,-3971
5341,18993657,517,-1084,-415,1758,5840,-4018
5342,18993667,571,-976,-173,1630,5751,-3876
5343,18993677,387,-792,-85,1193,5302,-3567
5344,18993687,369,-616,149,1056,4990,-3321
5345,18993697,407,-526,593,1124,4801,-3169
5346,18993707,525,-302,1339,1118,4588,-3070
5347,18993717,762,-94,1889,1136,4257,-3226
5348,18993727,894,115,2025,1011,3458,-3401
5349,18993737,928,326,1943,622,2451,-3362
5350,18993747,838,521,1766,286,1555,-3056
5351,18993757,742,629,1651,231,897,-2589
5352,18993767,719,740,1728,353,437,-2095
5353,18993777,723,798,2024,617,28,-1627
5354,18993787,674,857,2374,811,-502,-1135
5355,18993797,637,952,2602,777,-1238,-768
5356,18993794,637,952,2602,778,-1238,-574
5357,18993804,578,844,2556,652,-2239,-20
5358,18993814,350,819,2313,465,-3547,854
5359,18993824,139,727,2158,582,-5037,1829
5360,18993834,-38,626,1892,879,-6508,2781
5361,18993844,-325,508,1600,1213,-7896,3630
5362,18993854,-641,221,1332,1825,-8990,4361
5363,18993864,-947,-66,1178,2433,-9668,4962
5364,18993874,-1266,-530,1105,3124,-10064,5397
5365,18993884,-1703,-903,1094,3606,-10502,5695
5366,18993894,-2165,-1188,1163,3870,-10932,5685
5367,18993904,-2664,-1486,1272,3909,-11215,5502
5368,18993914,-3267,-1760,1181,3499,-11520,5232
5369,18993924,-3772,-1993,841,2699,-11898,4758
5370,18993934,-4095,-1974,379,1629,-12502,4166
5371,18993944,-4353,-1924,-339,762,-13109,3506
5372,18993954,-4452,-1759,-1436,61,-13746,2919
5373,18993964,-4300,-2529,-2489,-325,-14309,2385
5374,18993974,-4292,-2972,-3114,-599,-14433,2232
5375,18993984,-4070,-3225,-4383,-1861,-13991,1569
5376,18993994,-4101,-2738,-5306,-3066,-13500,289
5377,18994004,-3959,-2131,-5148,-2465,-12293,-1224
5378,18994014,-3751,-1675,-4746,-552,-9698,-2248
5379,18994024,-3362,-1063,-4285,528,-6433,-2974
5380,18994034,-3027,-782,-3680,1500,-3344,-3074
5381,18994044,-2728,-641,-3111,2143,-1394,-2817
5382,18994040,-2727,-642,-3110,2143,-1394,-2791
5383,18994050,-2474,-557,-2610,2342,-443,-2418
5384,18994060,-2255,-632,-2241,2436,-42,-1868
5385,18994070,-2119,-749,-1984,2209,-38,-1214
5386,18994080,-1942,-810,-1931,1532,-231,-730
5387,18994090,-1839,-865,-1954,690,-513,-388
5388,18994100,-1740,-937,-1992,105,-722,-26
5389,18994110,-1652,-1015,-2064,-193,-793,233
5390,18994120,-1594,-1145,-2037,-183,-727,318
5391,18994130,-1551,-1236,-1999,23,-564,253
5392,18994140,-1434,-1281,-1951,313,-436,89
5393,18994150,-1326,-1300,-1867,605,-368,-109
5394,18994160,-1284,-1240,-1793,811,-339,-293
5395,18994170,-1255,-1180,-1728,1034,-329,-436
5396,18994180,-1189,-1095,-1645,1219,-339,-560
5397,18994190,-1135,-996,-1611,1381,-359,-663
5398,18994200,-1167,-948,-1535,1579,-366,-634
5399,18994210,-1153,-906,-1489,1676,-353,-579
5400,18994220,-1111,-912,-1471,1687,-329,-538
5401,18994230,-1155,-913,-1489,1598,-308,-417
5402,18994240,-1197,-995,-1553,1472,-297,-224
5403,18994250,-1272,-1081,-1678,1313,-274,31
5404,18994260,-1394,-1169,-1847,1066,-189,219
5405,18994270,-1589,-1252,-2061,797,-16,378
5406,18994280,-1754,-1414,-2306,650,287,524
5407,18994290,-1867,-1480,-2565,513,787,512
5408,18994287,-1867,-1480,-2564,514,787,535
5409,18994297,-2102,-1578,-2803,435,1358,523
5410,18994307,-2302,-1625,-3050,371,2048,505
5411,18994317,-2375,-1698,-3278,249,2786,463
5412,18994327,-2448,-1842,-3435,222,3552,401
5413,18994337,-2517,-1914,-3439,308,4331,324
5414,18994347,-2509,-2000,-3317,453,5176,67
5415,18994357,-2505,-2030,-3173,482,6144,-278
5416,18994367,-2464,-1977,-2901,349,7091,-713
5417,18994377,-2392,-1939,-2734,122,7912,-1134
5418,18994387,-2367,-1897,-2583,-168,8535,-1487
5419,18994397,-2399,-1847,-2384,-236,9332,-1736
5420,18994407,-2442,-1869,-2145,-163,10125,-2012
5421,18994417,-2449,-1704,-1699,-115,10845,-2319
5422,18994427,-2422,-1522,-1226,-30,11579,-2617
5423,18994437,-2332,-1439,-665,121,12361,-3042
5424,18994447,-2115,-1435,-177,254,12869,-3467
5425,18994457,-1779,-1218,26,-160,12583,-3975
5426,18994467,-1597,-1144,31,-593,11698,-4210
5427,18994477,-1398,-1013,105,-630,11105,-4201
5428,18994487,-1091,-781,274,-411,10449,-3981
5429,18994497,-748,-605,463,168,9642,-3848
5430,18994507,-316,-412,837,882,8781,-3709
5431,18994517,130,-220,1127,1385,7693,-3329
5432,18994527,411,-260,1332,1884,6416,-2636
5433,18994537,616,-224,1393,2159,5351,-2305
5434,18994534,617,-224,1394,2159,5351,-2097
5435,18994544,822,-236,1581,2208,4557,-1946
5436,18994554,1043,-110,1669,2065,3973,-1881
5437,18994564,1150,-108,1713,1897,3338,-1666
5438,18994574,1194,-159,1770,1776,2831,-1390
5439,18994584,1228,-185,1751,1594,2276,-1200
5440,18994594,1220,-101,1594,1209,1739,-1109
5441,18994604,1201,-58,1456,989,1259,-1059
5442,18994614,1150,-22,1287,931,823,-1005
5443,18994624,1177,-13,1188,916,472,-946
5444,18994634,1234,24,1099,849,172,-886
5445,18994644,1266,4,1033,740,-106,-792
5446,18994654,1326,112,955,579,-361,-760
5447,18994664,1447,210,880,466,-657,-762
5448,18994674,1553,251,845,542,-944,-705
5449,18994684,1600,321,751,565,-1251,-629
5450,18994694,1685,406,629,513,-1549,-519
5451,18994704,1760,460,517,490,-1784,-373
5452,18994714,1781,460,426,466,-2000,-159
5453,18994724,1789,469,307,290,-2230,146
5454,18994734,1781,470,119,40,-2474,505
5455,18994744,1740,480,-69,-108,-2632,815
5456,18994754,1740,490,-193,-45,-2634,1012
5457,18994764,1804,487,-265,216,-2609,1181
5458,18994774,1876,436,-315,580,-2575,1396
5459,18994784,1857,372,-359,931,-2605,1537
5460,18994780,1858,371,-359,931,-2606,1695
5461,18994790,1812,254,-368,1254,-2614,1999
5462,18994800,1773,110,-406,1442,-2573,2293
5463,18994810,1688,-63,-430,1474,-2501,2565
5464,18994820,1636,-238,-387,1444,-2386,2694
5465,18994830,1688,-349,-314,1258,-2374,2719
5466,18994840,1792,-374,-279,910,-2553,2737
5467,18994850,1746,-400,-313,610,-2942,2867
5468,18994860,1720,-402,-293,514,-3234,3039
5469,18994870,1664,-417,-361,539,-3393,3170
5470,18994880,1470,-576,-640,575,-3424,3263
5471,18994890,1257,-791,-865,674,-3043,3289
5472,18994900,1085,-1043,-1015,858,-2588,3261
5473,18994910,1035,-1259,-1045,974,-2361,3094
5474,18994920,1054,-1353,-1033,1048,-2225,2623
5475,18994930,1161,-1356,-979,992,-2077,2186
5476,18994940,1352,-1317,-881,879,-2054,1967
5477,18994950,1453,-1251,-819,729,-2179,1937
5478,18994960,1453,-1178,-796,469,-2437,1986
5479,18994970,1390,-1259,-801,205,-2753,2116
5480,18994980,1204,-1351,-1041,-276,-3105,2105
5481,18994990,970,-1309,-1458,-811,-3347,1856
5482,18995000,875,-1328,-1731,-807,-3229,1555
5483,18995010,921,-1371,-1817,-332,-2843,1138
5484,18995020,974,-1412,-1725,379,-2259,901
5485,18995030,1046,-1459,-1568,963,-1711,768
5486,18995027,1047,-1460,-1568,964,-1711,786
5487,18995037,1157,-1436,-1458,1206,-1423,787
5488,18995047,1147,-1379,-1492,1253,-1431,906
5489,18995057,1052,-1391,-1584,1241,-1560,985
5490,18995067,909,-1465,-1671,1219,-1560,1101
5491,18995077,904,-1593,-1678,1228,-1341,1205
5492,18995087,876,-1725,-1664,1193,-1122,1237
5493,18995097,799,-1740,-1684,1041,-1065,1082
5494,18995107,866,-1745,-1653,980,-990,871
5495,18995117,1088,-1813,-1605,1089,-875,840
5496,18995127,1065,-2017,-1660,1163,-1029,1046
5497,18995137,900,-2198,-1898,1209,-1393,1316
5498,18995147,677,-2410,-2184,1408,-1604,1346
5499,18995157,355,-2545,-2458,1649,-1510,1271
5500,18995167,126,-2592,-2494,2008,-1232,1017
5501,18995177,189,-2544,-2229,2393,-813,454
5502,18995187,366,-2420,-1869,2540,-245,-38
5503,18995197,473,-2239,-1503,2375,365,-296
5504,18995207,599,-2006,-1168,2074,810,-373
5505,18995217,736,-1781,-931,1682,928,-411
5506,18995227,767,-1593,-831,1289,838,-362
5507,18995237,736,-1426,-767,1053,689,-295
5508,18995247,750,-1316,-724,916,569,-244
5509,18995257,788,-1233,-700,884,480,-219
5510,18995267,763,-1182,-689,899,383,-231
5511,18995277,778,-1163,-647,937,324,-256
5512,18995274,778,-1164,-647,938,323,-235
5513,18995284,844,-1186,-613,998,247,-211
5514,18995294,873,-1195,-619,1028,126,-179
5515,18995304,869,-1219,-641,1010,-18,-155
5516,18995314,906,-1213,-725,969,-234,-116
5517,18995324,915,-1243,-845,921,-461,-73
5518,18995334,870,-1278,-991,855,-702,29
5519,18995344,809,-1377,-1167,830,-922,135
5520,18995354,727,-1495,-1352,819,-1064,266
5521,18995364,559,-1636,-1565,793,-1111,344
5522,18995374,383,-1742,-1722,809,-1047,317
5523,18995384,371,-1787,-1750,909,-830,146
5524,18995394,413,-1764,-1738,946,-589,-9
5525,18995404,454,-1719,-1640,960,-388,-115
5526,18995414,512,-1645,-1522,919,-255,-192
5527,18995424,610,-1525,-1447,823,-150,-294
5528,18995434,683,-1413,-1353,743,-57,-353
5529,18995444,736,-1324,-1274,737,-13,-377
5530,18995454,811,-1258,-1210,747,6,-369
5531,18995464,877,-1214,-1159,791,-14,-327
5532,18995474,822,-1201,-1177,816,-95,-272
5533,18995484,813,-1191,-1219,818,-160,-219
5534,18995494,833,-1202,-1246,846,-196,-194
5535,18995504,794,-1228,-1287,867,-218,-140
5536,18995514,756,-1279,-1349,902,-252,-70
5537,18995524,739,-1316,-1386,915,-294,-256
5538,18995520,739,-1317,-1386,916,-295,-21
5539,18995530,743,-1352,-1412,933,-324,-27
5540,18995540,697,-1365,-1446,942,-324,-28
5541,18995550,675,-1367,-1432,1009,-276,-50
5542,18995560,689,-1380,-1387,1059,-229,-63
5543,18995570,699,-1372,-1375,1086,-208,-75
5544,18995580,661,-1388,-1343,1115,-190,-87
5545,18995590,691,-1382,-1293,1113,-143,-104
5546,18995600,730,-1377,-1278,1105,-123,-96
5547,18995610,691,-1393,-1310,1085,-121,-100
5548,18995620,687,-1392,-1263,1066,-68,-121
5549,18995630,726,-1380,-1249,1087,-59,-125
5550,18995640,746,-1399,-1239,1079,-102,-115
5551,18995650,678,-1399,-1271,1049,-152,-93
5552,18995660,717,-1378,-1243,1040,-178,-92
5553,18995670,775,-1383,-1243,1044,-187,-104
5554,18995680,742,-1364,-1244,1050,-210,-93
5555,18995690,742,-1381,-1252,1071,-236,-75
5556,18995700,752,-1369,-1250,1063,-271,-74
5557,18995710,738,-1368,-1285,1057,-290,-74
5558,18995720,714,-1370,-1302,1058,-301,-83
5559,18995730,731,-1380,-1328,1062,-279,-97
5560,18995740,740,-1393,-1339,1059,-250,-99
5561,18995750,700,-1386,-1350,1034,-241,-90
5562,18995760,710,-1393,-1338,1023,-232,-98
5563,18995770,736,-1365,-1323,1033,-229,-256
5564,18995767,737,-1366,-1323,1034,-229,-107
5565,18995777,760,-1349,-1304,1052,-235,-102
5566,18995787,734,-1335,-1289,1047,-249,-103
5567,18995797,749,-1328,-1300,1049,-265,-104
5568,18995807,752,-1329,-1301,1062,-256,-87
5569,18995817,736,-1334,-1285,1101,-210,-91
5570,18995827,745,-1352,-1275,1101,-193,-101
5571,18995837,746,-1343,-1314,1075,-227,-73
5572,18995847,730,-1361,-1346,1074,-234,-46
5573,18995857,706,-1379,-1336,1106,-221,-52
5574,18995867,739,-1375,-1334,1128,-216,-60
5575,18995877,765,-1399,-1305,1146,-209,-46
5576,18995887,720,-1416,-1290,1156,-199,-36
5577,18995897,703,-1417,-1280,1164,-197,-32
5578,18995907,722,-1422,-1245,1178,-173,-38
5579,18995917,705,-1422,-1229,1188,-160,-43
5580,18995927,711,-1443,-1216,1180,-167,-44
5581,18995937,727,-1448,-1226,1150,-188,-57
5582,18995947,759,-1434,-1228,1123,-211,-78
5583,18995957,744,-1427,-1230,1101,-239,-77
5584,18995967,729,-1398,-1243,1090,-250,-75
5585,18995977,734,-1371,-1285,1082,-255,-79
5586,18995987,725,-1378,-1279,1093,-216,-97
5587,18995997,713,-1387,-1273,1147,-158,-108
5588,18996007,736,-1394,-1271,1167,-155,-95
5589,18996017,775,-1399,-1260,1147,-181,-256
5590,18996014,775,-1400,-1260,1147,-181,-82
5591,18996024,726,-1404,-1274,1125,-192,-81
5592,18996034,711,-1390,-1270,1120,-189,-80
5593,18996044,739,-1419,-1272,1147,-173,-77
5594,18996054,704,-1415,-1278,1157,-147,-78
5595,18996064,686,-1412,-1271,1201,-113,-82
5596,18996074,695,-1416,-1267,1253,-80,-81
5597,18996084,746,-1388,-1243,1293,-69,-84
5598,18996094,755,-1411,-1219,1339,-64,-88
5599,18996104,748,-1392,-1188,1362,-70,-71
5600,18996114,795,-1397,-1177,1351,-92,-57
5601,18996124,786,-1372,-1189,1354,-101,-58
5602,18996134,707,-1371,-1197,1374,-51,-53
5603,18996144,699,-1378,-1193,1423,-30,0
5604,18996154,699,-1408,-1165,1510,-38,29
5605,18996164,620,-1421,-1157,1554,-46,43
5606,18996174,561,-1448,-1142,1601,-45,121
5607,18996184,573,-1458,-1110,1625,-33,179
5608,18996194,611,-1494,-1065,1630,-27,179
5609,18996204,628,-1445,-1042,1568,-38,158
5610,18996214,706,-1409,-1021,1524,-95,92
5611,18996224,695,-1333,-1019,1570,-108,71
5612,18996234,739,-1352,-947,1652,-46,101
5613,18996244,730,-1304,-871,1682,19,104
5614,18996254,783,-1328,-823,1643,-41,179
5615,18996264,759,-1398,-848,1515,-119,256
