sequence,timestamp_ms,accel_x,accel_y,accel_z,gyro_x,gyro_y,gyro_z
3068,18972086,-162,-1203,-1636,1168,-293,-41
3069,18972096,-208,-1209,-1623,1211,-269,-49
3070,18972106,-184,-1196,-1605,1265,-238,-61
3071,18972116,-157,-1228,-1592,1272,-220,-52
3072,18972126,-174,-1233,-1573,1240,-228,-32
3073,18972136,-193,-1233,-1573,1188,-233,-26
3074,18972146,-154,-1224,-1546,1162,-227,-42
3075,18972156,-156,-1233,-1558,1137,-232,-45
3076,18972166,-200,-1235,-1573,1101,-258,-15
3077,18972176,-192,-1235,-1577,1095,-280,-9
3078,18972186,-180,-1236,-1586,1124,-296,-7
3079,18972196,-192,-1266,-1583,1155,-277,-12
3080,18972206,-204,-1249,-1581,1122,-262,-26
3081,18972216,-167,-1236,-1574,1149,-247,-43
3082,18972226,-167,-1231,-1567,1160,-239,-39
3083,18972236,-195,-1248,-1576,1145,-242,-34
3084,18972246,-176,-1240,-1578,1139,-249,-30
3085,18972256,-161,-1223,-1597,1121,-253,-34
3086,18972266,-181,-1236,-1580,1118,-250,-47
3087,18972276,-189,-1241,-1590,1112,-249,-60
3088,18972286,-164,-1226,-1594,1082,-255,-74
3089,18972296,-175,-1224,-1580,1108,-261,-66
3090,18972306,-190,-1224,-1590,1128,-270,-53
3091,18972316,-188,-1240,-1582,1160,-250,-46
3092,18972326,-163,-1264,-1571,1191,-226,-34
3093,18972336,-190,-1265,-1546,1190,-222,-256
3094,18972333,-190,-1266,-1546,1190,-223,-29
3095,18972343,-206,-1272,-1555,1188,-225,-23
3096,18972353,-189,-1292,-1559,1194,-225,-25
3097,18972363,-185,-1283,-1570,1191,-221,-36
3098,18972373,-211,-1271,-1561,1162,-226,-54
3099,18972383,-191,-1252,-1566,1157,-238,-75
3100,18972393,-156,-1253,-1575,1147,-241,-80
3101,18972403,-180,-1258,-1560,1149,-244,-64
3102,18972413,-181,-1263,-1553,1135,-251,-51
3103,18972423,-160,-1279,-1558,1104,-269,-39
3104,18972433,-169,-1274,-1548,1076,-279,-32
3105,18972443,-203,-1291,-1563,1049,-284,-41
3106,18972453,-201,-1275,-1563,1031,-294,-51
3107,18972463,-165,-1272,-1575,1030,-292,-63
3108,18972473,-190,-1262,-1592,1030,-295,-83
3109,18972483,-203,-1261,-1579,1052,-285,-84
3110,18972493,-201,-1258,-1577,1086,-259,-88
3111,18972503,-175,-1258,-1574,1142,-241,-72
3112,18972513,-209,-1262,-1567,1169,-229,-67
3113,18972523,-182,-1269,-1556,1180,-226,-50
3114,18972533,-160,-1262,-1542,1173,-232,-43
3115,18972543,-182,-1283,-1542,1187,-249,-75
3116,18972553,-191,-1286,-1530,1256,-254,-69
3117,18972563,-184,-1252,-1534,1214,-305,-63
3118,18972573,-197,-1337,-1542,1361,-351,-39
3119,18972583,-242,-1325,-1541,1346,-369,-256
3120,18972579,-242,-1326,-1541,1346,-369,-2
3121,18972589,-241,-1336,-1548,1281,-406,47
3122,18972599,-228,-1352,-1553,1384,-475,160
3123,18972609,-116,-1647,-1699,1310,-515,169
3124,18972619,-397,-1638,-1724,980,-602,343
3125,18972629,-257,-1201,-1479,1565,-319,179
3126,18972639,-267,-1445,-1548,964,-500,-4
3127,18972649,-447,-1145,-1452,1120,-353,172
3128,18972659,-109,-1563,-1406,1336,-475,-37
3129,18972669,-261,-1238,-1482,1032,-468,188
3130,18972679,-282,-1288,-1424,1205,-563,166
3131,18972689,-244,-1289,-1412,1334,-725,266
3132,18972699,-228,-1368,-1448,1384,-818,321
3133,18972709,-249,-1384,-1439,1297,-833,261
3134,18972719,-298,-1327,-1462,1203,-798,127
3135,18972729,-269,-1291,-1436,1188,-775,8
3136,18972739,-265,-1299,-1490,1172,-731,-37
3137,18972749,-322,-1301,-1517,1082,-721,17
3138,18972759,-330,-1338,-1530,1078,-685,45
3139,18972769,-334,-1303,-1535,1020,-652,21
3140,18972779,-286,-1261,-1528,1060,-617,-20
3141,18972789,-296,-1300,-1483,1145,-566,-44
3142,18972799,-251,-1252,-1417,1088,-534,-44
3143,18972809,-207,-1225,-1420,1096,-551,-6
3144,18972819,-239,-1215,-1452,1006,-566,-28
3145,18972829,-274,-1216,-1488,951,-517,-256
3146,18972826,-274,-1216,-1488,952,-517,-21
3147,18972836,-339,-1272,-1513,971,-447,61
3148,18972846,-395,-1302,-1531,955,-434,142
3149,18972856,-437,-1347,-1543,975,-435,133
3150,18972866,-427,-1324,-1560,969,-429,106
3151,18972876,-398,-1295,-1551,978,-402,43
3152,18972886,-442,-1343,-1527,1096,-366,34
3153,18972896,-442,-1327,-1494,1157,-326,16
3154,18972906,-389,-1303,-1466,1165,-323,-7
3155,18972916,-378,-1319,-1454,1112,-374,64
3156,18972926,-679,-1252,-1534,994,-397,184
3157,18972936,-587,-1302,-1468,1286,-488,230
3158,18972946,-441,-1339,-1518,965,-508,166
3159,18972956,-470,-1321,-1550,1138,-371,199
3160,18972966,-480,-1349,-1504,1143,-315,156
3161,18972976,-450,-1330,-1517,1170,-280,132
3162,18972986,-388,-1274,-1488,1166,-237,80
3163,18972996,-391,-1286,-1445,1219,-164,26
3164,18973006,-360,-1269,-1447,1260,-113,-12
3165,18973016,-341,-1302,-1432,1216,-81,-48
3166,18973026,-382,-1293,-1456,1133,-61,-50
3167,18973036,-420,-1325,-1448,1121,-59,-39
3168,18973046,-386,-1328,-1441,1044,-50,16
3169,18973056,-417,-1360,-1460,999,-40,-2
3170,18973066,-450,-1379,-1460,953,-45,-42
3171,18973076,-397,-1340,-1476,904,-52,-256
3172,18973073,-397,-1341,-1476,905,-52,-74
3173,18973083,-375,-1330,-1567,859,-11,-160
3174,18973093,-406,-1334,-1557,918,140,-273
3175,18973103,-402,-1328,-1497,1031,376,-443
3176,18973113,-347,-1340,-1458,1078,513,-559
3177,18973123,-343,-1357,-1458,1080,565,-658
3178,18973133,-381,-1316,-1450,1052,499,-699
3179,18973143,-314,-1433,-1457,1065,408,-802
3180,18973153,-278,-1343,-1478,838,333,-864
3181,18973163,-254,-1305,-1493,780,288,-889
3182,18973173,-168,-1249,-1447,795,309,-899
3183,18973183,-144,-1234,-1418,865,306,-784
3184,18973193,-77,-1241,-1331,990,289,-722
3185,18973203,-58,-1177,-1294,984,278,-656
3186,18973213,5,-961,-1334,963,183,-544
3187,18973223,44,-723,-1192,1249,-139,-89
3188,18973233,192,-903,-881,2096,-783,878
3189,18973243,115,-1048,-899,2326,-1606,1814
3190,18973253,-916,-2325,-1901,1920,-2271,1818
3191,18973263,-702,-934,-2006,-1397,-1854,908
3192,18973273,738,-2557,-1954,844,-1202,111
3193,18973283,-1104,-1330,-1737,897,-1202,992
3194,18973293,-576,-1477,-1576,325,-823,67
3195,18973303,-407,-1270,-1567,690,-673,-42
3196,18973313,-402,-1340,-1493,772,-399,-183
3197,18973323,-450,-1326,-1507,772,-336,-256
3198,18973320,-450,-1327,-1507,772,-336,-134
3199,18973330,-422,-1320,-1533,659,-319,-243
3200,18973340,-430,-1245,-1632,570,-205,-384
3201,18973350,-413,-1230,-1672,602,-59,-490
3202,18973360,-337,-1353,-1742,697,94,-570
3203,18973370,-402,-1195,-1722,733,163,-589
3204,18973380,-440,-1759,-1897,820,276,-743
3205,18973390,-588,-839,-1617,389,76,-400
3206,18973400,69,-1176,-1542,1050,760,-1606
3207,18973410,-249,-1368,-1562,1306,526,-880
3208,18973420,-290,-1584,-1541,1085,378,-573
3209,18973430,-304,-1312,-1510,710,246,-741
3210,18973440,-164,-1157,-1591,267,293,-1020
3211,18973450,-111,-1151,-1552,466,419,-1066
3212,18973460,-67,-1234,-1488,755,428,-751
3213,18973470,-78,-1228,-1481,736,353,-613
3214,18973480,-70,-1192,-1497,644,241,-575
3215,18973490,-56,-1169,-1517,660,143,-554
3216,18973500,-29,-1165,-1502,712,63,-514
3217,18973510,-67,-1168,-1526,785,-1,-450
3218,18973520,-94,-1157,-1538,852,-25,-439
3219,18973530,-50,-1157,-1538,921,1,-457
3220,18973540,-73,-1179,-1549,941,7,-435
3221,18973550,-95,-1215,-1551,948,-35,-420
3222,18973560,-95,-1191,-1582,913,-125,-387
3223,18973570,-55,-1161,-1621,912,-239,-512
3224,18973566,-55,-1161,-1621,913,-239,-366
3225,18973576,-79,-1151,-1656,959,-312,-333
3226,18973586,-78,-1193,-1654,1021,-326,-302
3227,18973596,-50,-1206,-1649,1042,-312,-297
3228,18973606,-59,-1189,-1660,1025,-303,-292
3229,18973616,-57,-1180,-1657,1024,-282,-280
3230,18973626,-31,-1166,-1650,1021,-241,-262
3231,18973636,-19,-1189,-1660,1026,-218,-211
3232,18973646,-45,-1203,-1673,1056,-193,-161
3233,18973656,-60,-1227,-1651,1119,-172,-131
3234,18973666,-19,-1212,-1657,1185,-168,-147
3235,18973676,-21,-1194,-1671,1224,-158,-187
3236,18973686,-49,-1189,-1645,1282,-148,-222
3237,18973696,-29,-1189,-1623,1347,-158,-240
3238,18973706,4,-1176,-1608,1386,-197,-238
3239,18973716,-1,-1157,-1607,1413,-244,-242
3240,18973726,-2,-1150,-1585,1431,-272,-240
3241,18973736,48,-1148,-1569,1463,-283,-229
3242,18973746,51,-1161,-1547,1503,-294,-209
3243,18973756,27,-1165,-1550,1546,-347,-197
3244,18973766,2,-1220,-1604,1617,-438,-187
3245,18973776,-4,-1264,-1645,1737,-506,-242
3246,18973786,-66,-1292,-1662,1918,-513,-339
3247,18973796,-57,-1319,-1631,2153,-487,-470
3248,18973806,-23,-1339,-1615,2365,-516,-541
3249,18973816,-18,-1365,-1649,2514,-605,-768
3250,18973813,-18,-1366,-1649,2514,-606,-591
3251,18973823,-60,-1356,-1750,2550,-642,-637
3252,18973833,-77,-1311,-1797,2585,-612,-694
3253,18973843,-82,-1306,-1845,2676,-583,-722
3254,18973853,-150,-1331,-1933,2808,-561,-742
3255,18973863,-238,-1373,-1980,3029,-493,-810
3256,18973873,-205,-1416,-1940,3366,-289,-930
3257,18973883,-220,-1487,-1952,3705,-73,-1059
3258,18973893,-250,-1547,-1978,3978,148,-1232
3259,18973903,-215,-1592,-2038,4273,438,-1432
3260,18973913,-176,-1739,-2171,4470,789,-1632
3261,18973923,-267,-1856,-2373,4451,1353,-1937
3262,18973933,-234,-1896,-2344,4339,2417,-2341
3263,18973943,-23,-1880,-2062,4180,3457,-2666
3264,18973953,189,-1882,-1912,3853,3952,-2731
3265,18973963,282,-1957,-1852,3425,3889,-2527
3266,18973973,316,-2011,-1876,2897,3978,-2338
3267,18973983,353,-2083,-1875,2534,4321,-2342
3268,18973993,322,-2072,-1739,2247,4931,-2491
3269,18974003,462,-1884,-1571,2097,5606,-2702
3270,18974013,518,-1837,-1304,2246,5968,-2731
3271,18974023,721,-1788,-945,2545,6285,-2627
3272,18974033,828,-1828,-671,2583,6007,-2349
3273,18974043,844,-1821,-560,2348,5407,-1933
3274,18974053,800,-1865,-435,2132,4944,-1554
3275,18974063,727,-1868,-288,2089,4834,-1537
3276,18974060,728,-1869,-288,2090,4834,-1375
3277,18974070,656,-1956,-76,2226,4926,-1352
3278,18974080,632,-1961,172,2228,5032,-1516
3279,18974090,637,-1905,446,2162,5086,-1822
3280,18974100,697,-1799,738,2024,5003,-1978
3281,18974110,650,-1718,832,1863,4650,-1984
3282,18974120,612,-1630,884,1749,4435,-2051
3283,18974130,621,-1632,1129,1665,4453,-2272
3284,18974140,657,-1550,1371,1501,4272,-2474
3285,18974150,630,-1430,1478,1089,3850,-2578
3286,18974160,674,-1281,1562,819,3699,-2626
3287,18974170,668,-1169,1724,752,3605,-2719
3288,18974180,723,-1022,1842,725,3268,-2683
3289,18974190,710,-893,1816,570,2842,-2521
3290,18974200,622,-775,1795,515,2520,-2299
3291,18974210,547,-672,1827,580,2334,-2187
3292,18974220,611,-577,1942,656,2246,-2111
3293,18974230,615,-486,2119,730,1956,-1942
3294,18974240,600,-421,2331,682,1454,-1728
3295,18974250,618,-305,2667,502,1041,-1513
3296,18974260,666,-178,2822,165,685,-1254
3297,18974270,570,-157,2750,-217,80,-743
3298,18974280,353,-97,2641,-436,-924,168
3299,18974290,80,-119,2451,-376,-2142,1201
3300,18974300,-67,-91,2479,66,-3049,1957
3301,18974310,-75,-23,2733,682,-3810,2305
3302,18974306,-74,-24,2733,683,-3810,2553
3303,18974316,-204,-48,2978,1379,-4786,3411
3304,18974326,-544,-306,3303,2153,-5939,4549
3305,18974336,-1069,-773,3440,2637,-7060,5746
3306,18974346,-1710,-1064,3371,2671,-8157,6804
3307,18974356,-2336,-1295,3186,2699,-9326,7602
3308,18974366,-2766,-1562,2891,2889,-10080,7842
3309,18974376,-2919,-1982,2705,3081,-10275,7374
3310,18974386,-2944,-2277,2514,3076,-10420,6652
3311,18974396,-3005,-2505,2384,3115,-10693,5911
3312,18974406,-2938,-2574,2137,3106,-10809,5146
3313,18974416,-2826,-2455,1893,3014,-10902,4412
3314,18974426,-2698,-2433,1665,3075,-11005,3941
3315,18974436,-2558,-2465,1319,2886,-10929,3440
3316,18974446,-2527,-2392,956,2533,-10743,2965
3317,18974456,-2363,-2304,703,2553,-10507,2377
3318,18974466,-2248,-2372,601,2944,-10298,1964
3319,18974476,-2322,-2476,584,3235,-10088,1923
3320,18974486,-2448,-2836,484,3272,-9887,2033
3321,18974496,-2536,-3132,197,3064,-9904,2316
3322,18974506,-2622,-3322,-37,2799,-10150,2429
3323,18974516,-2645,-3546,-413,2477,-10238,2080
3324,18974526,-2686,-3659,-880,1933,-9902,1439
3325,18974536,-2691,-3557,-1340,1294,-9127,840
3326,18974546,-2574,-3434,-1626,985,-8082,302
3327,18974556,-2435,-3330,-1720,938,-7028,0
3328,18974553,-2435,-3330,-1720,939,-7029,74
3329,18974563,-2274,-3324,-1684,1099,-6121,131
3330,18974573,-2113,-3241,-1590,1283,-5241,255
3331,18974583,-1930,-3215,-1458,1518,-4615,269
3332,18974593,-1784,-3206,-1393,1722,-4159,275
3333,18974603,-1649,-3160,-1366,1728,-3775,214
3334,18974613,-1609,-3114,-1308,1687,-3428,62
3335,18974623,-1537,-3012,-1241,1615,-3015,-139
3336,18974633,-1386,-2878,-1179,1519,-2642,-321
3337,18974643,-1277,-2696,-1137,1490,-2348,-463
3338,18974653,-1196,-2579,-1099,1495,-2077,-638
3339,18974663,-1101,-2510,-1095,1517,-1688,-773
3340,18974673,-1002,-2400,-1068,1464,-1173,-894
3341,18974683,-930,-2320,-979,1444,-663,-1006
3342,18974693,-833,-2246,-862,1531,-234,-1047
3343,18974703,-712,-2187,-782,1539,89,-991
3344,18974713,-685,-2245,-775,1476,353,-877
3345,18974723,-784,-2288,-802,1285,571,-756
3346,18974733,-810,-2345,-842,1090,921,-705
3347,18974743,-811,-2469,-926,893,1395,-667
3348,18974753,-909,-2580,-928,643,1978,-672
3349,18974763,-983,-2653,-925,399,2651,-708
3350,18974773,-1037,-2754,-887,233,3370,-815
3351,18974783,-1103,-2838,-847,36,4097,-970
3352,18974793,-1222,-2892,-829,-190,4786,-1235
3353,18974803,-1267,-2893,-714,-382,5482,-1793
3354,18974800,-1267,-2893,-714,-382,5482,-1568
3355,18974810,-1245,-2799,-628,-495,5929,-1877
3356,18974820,-1311,-2739,-715,-497,6058,-2147
3357,18974830,-1324,-2619,-712,-311,6178,-2400
3358,18974840,-1326,-2426,-695,-127,6375,-2722
3359,18974850,-1306,-2321,-610,-120,6601,-2995
3360,18974860,-1377,-2217,-529,-168,7007,-3107
3361,18974870,-1431,-2102,-368,-183,7495,-3259
3362,18974880,-1381,-2010,-137,-248,8206,-3545
3363,18974890,-1432,-1836,-24,-444,8794,-3759
3364,18974900,-1506,-1860,171,-573,9223,-3781
3365,18974910,-1532,-1853,456,-763,9672,-3736
3366,18974920,-1644,-1897,715,-1216,10021,-3710
3367,18974930,-1878,-1947,869,-1733,10202,-3618
3368,18974940,-2029,-2124,1061,-2175,10555,-3671
3369,18974950,-2122,-2015,1269,-2459,10860,-3823
3370,18974960,-2084,-1904,1552,-2344,10747,-4127
3371,18974970,-1989,-1709,1744,-2051,10416,-4319
3372,18974980,-1703,-1403,1971,-1546,9953,-4301
3373,18974990,-1492,-1210,2115,-804,9035,-3989
3374,18975000,-1228,-1085,2301,28,8187,-3642
3375,18975010,-969,-1015,2614,884,7302,-3216
3376,18975020,-741,-1093,2873,1538,6443,-2883
3377,18975030,-578,-1275,3149,1786,5522,-2619
3378,18975040,-505,-1415,3184,1449,4630,-2269
3379,18975050,-557,-1508,3009,942,3933,-2049
3380,18975046,-557,-1509,3009,943,3933,-1886
3381,18975056,-558,-1558,2912,757,3541,-1667
3382,18975066,-469,-1675,2899,879,3182,-1635
3383,18975076,-355,-1674,2879,815,2624,-1505
3384,18975086,-264,-1618,2754,600,1880,-1318
3385,18975096,-194,-1591,2543,451,1256,-1281
3386,18975106,-175,-1518,2303,342,793,-1212
3387,18975116,-103,-1479,2066,340,436,-1195
3388,18975126,-5,-1413,1882,334,341,-1309
3389,18975136,142,-1321,1888,416,333,-1423
3390,18975146,348,-1232,1878,477,194,-1521
3391,18975156,503,-1138,1777,382,-124,-1444
3392,18975166,580,-1104,1637,339,-423,-1207
3393,18975176,610,-1122,1484,373,-643,-924
3394,18975186,702,-1116,1381,446,-742,-741
3395,18975196,781,-1142,1313,558,-741,-634
3396,18975206,845,-1176,1307,710,-757,-490
3397,18975216,908,-1201,1259,798,-850,-316
3398,18975226,937,-1236,1202,889,-908,-144
3399,18975236,966,-1258,1210,988,-930,38
3400,18975246,929,-1272,1155,1014,-1020,278
3401,18975256,944,-1346,1071,1103,-1081,477
3402,18975266,943,-1394,1019,1253,-1028,521
3403,18975276,915,-1461,1003,1414,-1001,625
3404,18975286,929,-1501,1012,1512,-988,725
3405,18975296,933,-1519,988,1572,-1021,768
3406,18975293,934,-1519,988,1572,-1022,818
3407,18975303,912,-1549,1015,1637,-1022,957
3408,18975313,849,-1561,1061,1708,-1067,1131
3409,18975323,848,-1555,1116,1788,-1065,1226
3410,18975333,812,-1571,1157,1854,-1104,1258
3411,18975343,715,-1569,1151,1897,-1185,1324
3412,18975353,665,-1622,1084,1933,-1206,1318
3413,18975363,699,-1671,1082,2043,-1110,1250
3414,18975373,664,-1687,1088,2034,-1064,1180
3415,18975383,660,-1645,1095,1960,-1122,1135
3416,18975393,710,-1597,1148,1960,-1161,1090
3417,18975403,677,-1512,1201,1976,-1179,1079
3418,18975413,627,-1410,1307,1980,-1164,1028
3419,18975423,684,-1321,1424,1951,-1168,961
3420,18975433,800,-1259,1460,1908,-1252,933
3421,18975443,833,-1220,1419,1859,-1357,952
3422,18975453,835,-1290,1340,1917,-1458,966
3423,18975463,914,-1393,1314,1974,-1445,966
3424,18975473,925,-1455,1281,1810,-1427,953
3425,18975483,866,-1494,1203,1533,-1460,934
3426,18975493,890,-1505,1147,1314,-1526,912
3427,18975503,971,-1524,1064,1139,-1595,836
3428,18975513,1006,-1630,1021,989,-1555,711
3429,18975523,1058,-1701,957,818,-1472,594
3430,18975533,1130,-1735,859,630,-1406,475
3431,18975543,1126,-1786,749,538,-1376,256
3432,18975540,1126,-1787,749,539,-1376,383
3433,18975550,1050,-1833,607,476,-1295,313
3434,18975560,1003,-1950,517,455,-1167,261
3435,18975570,992,-2053,474,438,-1016,224
3436,18975580,906,-2107,476,327,-841,182
3437,18975590,907,-2132,524,264,-643,31
3438,18975600,1007,-2103,582,257,-515,-130
3439,18975610,993,-2076,576,249,-492,-224
3440,18975620,966,-2043,565,317,-464,-245
3441,18975630,938,-2010,549,423,-420,-234
3442,18975640,1025,-2017,616,466,-346,-322
3443,18975650,1073,-2013,637,438,-239,-448
3444,18975660,1094,-2034,582,398,-265,-399
3445,18975670,971,-2076,365,437,-393,-200
3446,18975680,820,-2087,230,666,-437,0
3447,18975690,725,-2055,295,1003,-269,-11
3448,18975700,778,-1946,502,1299,7,-200
3449,18975710,859,-1802,799,1402,182,-419
3450,18975720,889,-1650,959,1289,209,-510
3451,18975730,868,-1514,1002,1008,69,-456
3452,18975740,828,-1423,976,821,-62,-372
3453,18975750,818,-1392,991,750,-134,-315
3454,18975760,822,-1345,994,726,-155,-360
3455,18975770,826,-1332,935,680,-238,-337
3456,18975780,865,-1366,911,692,-283,-240
3457,18975790,859,-1437,906,712,-303,-256
3458,18975787,859,-1438,907,713,-304,-143
3459,18975797,873,-1497,892,740,-351,-52
3460,18975807,924,-1582,832,779,-430,80
3461,18975817,903,-1688,803,858,-473,230
3462,18975827,830,-1805,778,955,-452,315
3463,18975837,804,-1899,753,1020,-399,298
3464,18975847,839,-1956,772,1060,-330,211
3465,18975857,790,-1942,756,1035,-311,118
3466,18975867,819,-1910,770,953,-286,6
3467,18975877,837,-1836,724,865,-264,-94
3468,18975887,865,-1761,717,849,-282,-172
3469,18975897,825,-1703,687,840,-260,-198
3470,18975907,852,-1659,686,857,-249,-184
3471,18975917,886,-1605,693,880,-231,-170
3472,18975927,865,-1623,714,935,-228,-126
3473,18975937,861,-1629,714,958,-215,-85
3474,18975947,895,-1625,730,986,-229,-39
3475,18975957,918,-1642,772,1044,-247,8
3476,18975967,877,-1655,783,1079,-283,68
3477,18975977,866,-1684,756,1083,-349,123
3478,18975987,887,-1675,725,1063,-383,154
3479,18975997,828,-1697,703,1088,-364,151
3480,18976007,811,-1713,730,1148,-301,122
3481,18976017,815,-1757,740,1196,-263,104
3482,18976027,802,-1798,763,1174,-275,100
3483,18976037,763,-1813,770,1148,-286,0
3484,18976033,764,-1814,771,1148,-286,78
3485,18976043,802,-1805,789,1106,-311,74
3486,18976053,830,-1794,820,1063,-318,45
3487,18976063,826,-1782,828,1013,-323,12
3488,18976073,828,-1746,797,971,-363,-14
3489,18976083,862,-1723,790,941,-365,-63
3490,18976093,877,-1701,791,940,-366,-78
3491,18976103,841,-1698,755,949,-394,-66
3492,18976113,874,-1695,725,960,-392,-62
3493,18976123,908,-1690,701,981,-394,-59
3494,18976133,878,-1692,653,993,-366,-67
3495,18976143,895,-1709,662,1046,-286,-95
3496,18976153,902,-1684,681,1074,-231,-90
3497,18976163,878,-1671,696,1061,-233,-69
3498,18976173,835,-1685,705,1086,-231,-30
3499,18976183,834,-1704,719,1104,-223,-8
3500,18976193,831,-1713,754,1109,-218,12
3501,18976203,806,-1720,768,1130,-232,25
3502,18976213,781,-1743,790,1150,-250,28
3503,18976223,785,-1790,789,1159,-272,43
3504,18976233,779,-1797,779,1119,-276,16
3505,18976243,773,-1814,768,1082,-262,-43
3506,18976253,796,-1787,789,1059,-260,-86
3507,18976263,819,-1767,770,1047,-288,-109
3508,18976273,812,-1728,768,1032,-307,-117
3509,18976283,824,-1715,769,1024,-322,-256
