sequence,timestamp_ms,accel_x,accel_y,accel_z,gyro_x,gyro_y,gyro_z
598,18310224,-1707,-299,-1207,906,281,-338
599,18310234,-1712,-296,-1230,924,189,-320
600,18310244,-1701,-268,-1262,922,169,-312
601,18310254,-1659,-271,-1294,925,162,-270
602,18310264,-1622,-277,-1293,945,146,-200
603,18310274,-1633,-276,-1301,952,170,-133
604,18310284,-1589,-290,-1291,973,172,-42
605,18310294,-1597,-323,-1272,1007,142,67
606,18310304,-1605,-332,-1238,1005,140,144
607,18310314,-1644,-365,-1237,1006,151,212
608,18310324,-1690,-418,-1234,1024,137,287
609,18310334,-1706,-397,-1239,952,134,300
610,18310344,-1781,-437,-1276,939,128,295
611,18310354,-1800,-426,-1312,907,151,278
612,18310364,-1835,-448,-1331,878,196,273
613,18310374,-1906,-471,-1402,854,232,286
614,18310384,-1949,-453,-1478,776,263,270
615,18310394,-2021,-461,-1525,761,272,252
616,18310404,-2049,-411,-1553,761,373,200
617,18310414,-2164,-402,-1577,787,513,175
618,18310424,-2245,-382,-1650,796,660,155
619,18310434,-2346,-354,-1745,776,787,102
620,18310444,-2455,-330,-1867,727,939,21
621,18310454,-2594,-337,-2087,691,1137,-47
622,18310464,-2697,-224,-2296,640,1366,-114
623,18310474,-2720,-227,-2377,706,1695,-256
624,18310470,-2719,-228,-2377,706,1695,-250
625,18310480,-2720,-116,-2452,753,2083,-362
626,18310490,-2723,-125,-2462,915,2692,-308
627,18310500,-2581,-140,-2392,1173,3541,-90
628,18310510,-2545,-275,-2234,1310,4488,247
629,18310520,-2380,-498,-1999,1228,5558,633
630,18310530,-2149,-547,-1765,814,6553,1080
631,18310540,-1897,-559,-1552,354,6986,1442
632,18310550,-1813,-535,-1545,59,7014,1699
633,18310560,-1707,-666,-1589,-182,7019,1977
634,18310570,-1598,-726,-1705,-573,7121,2352
635,18310580,-1489,-865,-1755,-1038,7465,2847
636,18310590,-1425,-990,-1657,-1487,8025,3481
637,18310600,-1205,-1008,-1572,-1830,8548,3964
638,18310610,-1003,-1151,-1446,-2009,8887,4258
639,18310620,-877,-1132,-1327,-2169,9051,4359
640,18310630,-560,-979,-1278,-2432,9255,4137
641,18310640,-152,-822,-1243,-2507,9195,3981
642,18310650,-134,-656,-1209,-2171,8604,4166
643,18310660,-62,-849,-1080,-1436,8003,4298
644,18310670,-32,-896,-973,-908,7538,4207
645,18310680,109,-979,-863,-488,7153,3873
646,18310690,192,-1047,-767,-198,6891,3571
647,18310700,346,-1068,-568,-153,6822,3335
648,18310710,604,-1193,-250,-114,6799,3098
649,18310720,860,-1280,-47,-195,6559,2561
650,18310717,860,-1281,-47,-194,6558,2695
651,18310727,1026,-1274,196,-381,6127,2264
652,18310737,1227,-1263,307,-434,5609,1740
653,18310747,1317,-1137,215,-472,4962,1189
654,18310757,1253,-800,88,-623,4598,859
655,18310767,1256,-844,281,-236,4766,789
656,18310777,1456,-979,473,176,4896,582
657,18310787,1526,-1014,685,88,4862,364
658,18310797,1652,-871,851,-236,4660,-13
659,18310807,1767,-782,986,-424,4272,-369
660,18310817,1851,-682,1047,-631,3694,-660
661,18310827,1796,-475,1029,-930,3158,-864
662,18310837,1770,-229,959,-1126,2764,-987
663,18310847,1762,-15,932,-1062,2621,-919
664,18310857,1780,9,963,-717,2576,-703
665,18310867,1832,-70,1130,-310,2579,-439
666,18310877,1927,-139,1273,-3,2392,-353
667,18310887,2052,-129,1318,56,1963,-410
668,18310897,2033,-100,1244,-36,1369,-463
669,18310907,1987,110,1047,-176,880,-453
670,18310917,1954,249,907,-160,619,-366
671,18310927,1953,189,883,138,565,-182
672,18310937,1955,120,891,322,500,-89
673,18310947,2018,133,874,242,404,-101
674,18310957,2052,129,875,160,238,-140
675,18310967,2072,87,903,151,51,-256
676,18310964,2072,87,904,152,51,-164
677,18310974,2139,107,868,155,-144,-268
678,18310984,2181,232,774,158,-309,-272
679,18310994,2145,144,718,369,-381,-120
680,18311004,2121,92,686,555,-400,25
681,18311014,2176,59,688,620,-423,65
682,18311024,2180,-32,677,730,-538,87
683,18311034,2126,-133,613,795,-709,132
684,18311044,2079,-148,510,747,-858,111
685,18311054,2092,-157,443,730,-908,83
686,18311064,2062,-196,369,756,-936,82
687,18311074,1952,-170,199,789,-985,71
688,18311084,1961,-175,138,801,-828,186
689,18311094,1963,-233,125,889,-693,230
690,18311104,1954,-299,121,911,-590,206
691,18311114,1927,-298,86,825,-595,126
692,18311124,1965,-296,64,749,-632,29
693,18311134,1919,-264,29,773,-672,3
694,18311144,1918,-283,41,798,-606,-11
695,18311154,1956,-257,33,791,-533,-77
696,18311164,1973,-213,34,755,-512,-135
697,18311174,1952,-203,31,773,-485,-155
698,18311184,1959,-168,33,773,-487,-183
699,18311194,2022,-123,27,810,-519,-246
700,18311204,2007,-75,14,905,-555,-221
701,18311214,2011,-93,12,994,-534,-256
702,18311210,2012,-94,12,995,-535,-142
703,18311220,2060,-102,5,972,-486,-77
704,18311230,2086,-106,-27,921,-505,-59
705,18311240,2063,-120,-29,899,-568,-82
706,18311250,2064,-106,-51,895,-634,-146
707,18311260,2090,-106,-65,889,-706,-236
708,18311270,2143,-95,-75,906,-817,-326
709,18311280,2116,-44,-127,1010,-977,-314
710,18311290,2066,-121,-141,1278,-1087,-167
711,18311300,2111,-168,-166,1406,-1030,-56
712,18311310,2073,-165,-226,1291,-999,-90
713,18311320,2054,-151,-274,1186,-916,-75
714,18311330,2099,-165,-274,1143,-756,-55
715,18311340,2115,-158,-259,1163,-639,-80
716,18311350,2135,-163,-246,1211,-606,-126
717,18311360,2124,-131,-266,1303,-659,-168
718,18311370,2101,-104,-234,1441,-737,-207
719,18311380,2083,-165,-214,1575,-768,-264
720,18311390,2028,-169,-246,1515,-791,-302
721,18311400,1996,-136,-305,1241,-778,-323
722,18311410,1982,-60,-368,848,-627,-357
723,18311420,1989,56,-381,530,-449,-396
724,18311430,2041,52,-328,509,-260,-359
725,18311440,2096,-82,-252,586,-199,-305
726,18311450,2045,-162,-220,533,-261,-384
727,18311460,2060,-23,-210,328,-376,-768
728,18311457,2060,-24,-210,329,-376,-663
729,18311467,2099,138,-191,298,-452,-840
730,18311477,2029,482,-402,478,-529,-739
731,18311487,1753,383,-238,856,-376,-404
732,18311497,2049,55,-221,1342,46,-116
733,18311507,1863,61,-258,1188,44,-136
734,18311517,2055,137,-270,1320,364,-203
735,18311527,2041,29,-203,1471,225,-183
736,18311537,2054,-22,-168,1566,70,-139
737,18311547,1997,-27,-195,1480,-40,-98
738,18311557,2009,-18,-200,1393,-28,-89
739,18311567,2026,24,-174,1350,-71,-98
740,18311577,1967,-13,-170,1385,-169,-87
741,18311587,2002,31,-171,1371,-152,-71
742,18311597,1991,64,-187,1348,-171,-66
743,18311607,2092,233,-144,1408,-188,-27
744,18311617,2063,-85,-171,1410,-273,17
745,18311627,2034,-40,-189,1285,-297,26
746,18311637,2038,-51,-205,1214,-361,22
747,18311647,2063,-37,-172,1132,-406,-1
748,18311657,2025,-68,-210,1096,-430,22
749,18311667,2019,-15,-219,1118,-450,52
750,18311677,2000,-10,-233,1137,-460,47
751,18311687,2033,-49,-267,1147,-349,36
752,18311697,2000,-74,-266,1125,-335,-1
753,18311707,2032,-60,-268,1040,-322,-256
754,18311704,2033,-61,-267,1041,-323,-3
755,18311714,2053,-39,-303,921,-299,-5
756,18311724,2053,-4,-305,830,-286,-7
757,18311734,2067,11,-318,766,-293,-20
758,18311744,2086,31,-327,780,-303,-12
759,18311754,2078,48,-330,892,-339,16
760,18311764,2028,24,-314,1014,-390,38
761,18311774,2029,-14,-311,1134,-400,58
762,18311784,2025,-86,-323,1219,-415,75
763,18311794,1996,-79,-327,1217,-398,92
764,18311804,2008,-85,-344,1178,-384,93
765,18311814,2005,-89,-345,1114,-391,56
766,18311824,2001,-82,-347,1018,-403,11
767,18311834,1966,-71,-364,945,-370,8
768,18311844,1980,-57,-356,911,-325,0
769,18311854,1986,-62,-347,939,-274,-10
770,18311864,1980,-104,-337,960,-238,-17
771,18311874,2003,-114,-317,946,-230,-23
772,18311884,2026,-83,-322,889,-195,-31
773,18311894,2011,-71,-339,863,-202,-40
774,18311904,1995,-22,-358,877,-197,-34
775,18311914,1997,-35,-362,948,-191,-36
776,18311924,2009,-24,-366,1039,-189,-26
777,18311934,1988,-17,-351,1132,-184,-22
778,18311944,1983,-22,-328,1258,-164,-34
779,18311954,2021,-68,-314,1432,-126,-256
780,18311950,2022,-69,-313,1432,-126,-63
781,18311960,2102,-74,-296,1468,-97,-63
782,18311970,1989,-79,-304,1331,-179,-50
783,18311980,2061,-74,-293,1169,-139,-59
784,18311990,2056,-56,-281,1093,-142,-53
785,18312000,2029,-36,-284,1065,-172,-45
786,18312010,2058,-57,-278,1122,-164,-40
787,18312020,2066,-96,-234,1208,-204,-50
788,18312030,2064,-154,-252,1239,-249,-49
789,18312040,2024,-142,-278,1184,-280,-37
790,18312050,1978,-134,-314,1104,-331,-30
791,18312060,1989,-95,-331,1024,-309,-17
792,18312070,2026,-8,-302,982,-257,-1
793,18312080,2146,22,-155,1041,-260,-1
794,18312090,2198,13,-25,1205,-387,-33
795,18312100,2206,15,40,1363,-541,-63
796,18312110,2137,8,85,1548,-689,-98
797,18312120,2236,2,172,1701,-818,-135
798,18312130,2269,-25,222,1749,-1031,-84
799,18312140,2187,-21,223,1583,-1441,79
800,18312150,2100,34,192,1263,-1795,321
801,18312160,1967,89,179,1007,-2059,561
802,18312170,1899,209,108,786,-2011,877
803,18312180,1827,-498,244,427,-1785,938
804,18312190,2113,1691,-297,-1630,-2083,-494
805,18312200,2154,256,306,1099,-1625,256
806,18312197,2155,256,307,1100,-1625,439
807,18312207,1931,238,413,2039,-1742,1140
808,18312217,2221,536,349,1565,-1399,907
809,18312227,2165,316,462,2060,-1661,1136
810,18312237,1985,148,443,2398,-2118,1438
811,18312247,1801,13,350,2346,-2529,1417
812,18312257,1739,-101,221,2150,-2807,1247
813,18312267,1672,-121,72,1754,-3064,1103
814,18312277,1659,-216,33,1407,-3330,1026
815,18312287,1621,-253,-43,959,-3556,972
816,18312297,1592,-310,-114,452,-3750,959
817,18312307,1449,-380,-256,50,-3906,964
818,18312317,1224,-345,-569,-295,-4077,936
819,18312327,1108,-246,-788,-322,-4261,740
820,18312337,1028,-182,-929,-118,-4445,624
821,18312347,966,-132,-1087,200,-4624,568
822,18312357,717,40,-1389,509,-4748,702
823,18312367,606,53,-1533,1076,-4319,969
824,18312377,574,-214,-1419,1789,-3426,1317
825,18312387,503,-517,-1345,2186,-2831,1666
826,18312397,191,-787,-1386,2244,-2662,1957
827,18312407,53,-1222,-1483,2235,-2608,1914
828,18312417,-199,-1394,-1777,1750,-2544,1749
829,18312427,-169,-1466,-2002,1088,-2499,1250
830,18312437,-127,-1306,-2267,605,-2484,661
831,18312447,-162,-1033,-2391,363,-2478,0
832,18312444,-161,-1034,-2391,363,-2479,168
833,18312454,14,-750,-2403,329,-2139,-284
834,18312464,109,-574,-2286,460,-1835,-502
835,18312474,73,-614,-2098,567,-1690,-326
836,18312484,-57,-713,-1949,511,-1627,176
837,18312494,-207,-827,-1961,361,-1583,669
838,18312504,-216,-835,-2022,328,-1483,888
839,18312514,-214,-990,-2159,426,-1354,931
840,18312524,-244,-1094,-2282,666,-1327,970
841,18312534,-297,-1192,-2506,875,-1438,944
842,18312544,-222,-1218,-2709,1121,-1448,652
843,18312554,-238,-1183,-2721,1412,-1487,378
844,18312564,-253,-1110,-2644,1555,-1368,93
845,18312574,-179,-990,-2449,1415,-1043,-176
846,18312584,-107,-951,-2281,1063,-691,-336
847,18312594,-132,-828,-2284,501,-487,-226
848,18312604,-118,-801,-2362,-11,-388,-23
849,18312614,-24,-673,-2485,-399,-317,150
850,18312624,-30,-611,-2559,-468,-320,284
851,18312634,-79,-677,-2560,-69,-362,427
852,18312644,-25,-592,-2503,308,-291,339
853,18312654,65,-577,-2439,597,-73,93
854,18312664,87,-581,-2255,714,118,63
855,18312674,169,-687,-2045,929,290,29
856,18312684,242,-750,-1947,925,358,-13
857,18312694,246,-832,-2094,738,359,-256
858,18312691,247,-832,-2094,739,359,-29
859,18312701,-213,-829,-1895,582,101,125
860,18312711,372,-628,-2086,331,402,-297
861,18312721,353,-617,-2040,431,366,-374
862,18312731,292,-694,-2036,518,232,-198
863,18312741,312,-634,-2030,566,124,-82
864,18312751,374,-657,-2016,552,108,-118
865,18312761,401,-670,-2001,538,137,-163
866,18312771,364,-674,-1949,521,113,-130
867,18312781,415,-650,-1875,528,70,-102
868,18312791,516,-538,-1993,536,49,-113
869,18312801,373,-722,-1856,644,-10,91
870,18312811,368,-524,-1958,320,2,-144
871,18312821,376,-516,-1867,341,9,-106
872,18312831,368,-458,-1879,367,19,-67
873,18312841,386,-463,-1827,395,-67,-24
874,18312851,349,-509,-1855,445,-277,172
875,18312861,207,-375,-1923,271,-494,333
876,18312871,278,-495,-1476,382,-526,277
877,18312881,-534,-376,-2028,1304,-464,248
878,18312891,79,-442,-2112,215,-1173,762
879,18312901,201,-549,-1915,1443,-481,333
880,18312911,295,-660,-1804,1217,-333,360
881,18312921,365,-804,-1970,967,-361,298
882,18312931,202,-443,-1922,767,-535,301
883,18312941,124,-502,-1929,925,-482,0
884,18312937,125,-503,-1929,925,-483,237
885,18312947,15,-483,-1932,962,-472,325
886,18312957,34,-593,-1909,962,-348,274
887,18312967,-46,-629,-1938,900,-201,231
888,18312977,-19,-948,-2113,852,-111,181
889,18312987,-1205,45,-1584,526,-198,239
890,18312997,420,-1005,-1989,823,851,-940
891,18313007,-297,-816,-2222,663,180,-63
892,18313017,-154,-537,-2478,226,-68,-135
893,18313027,-363,-824,-2391,463,16,-439
894,18313037,-61,-598,-2435,631,597,-985
895,18313047,-134,-537,-2396,721,576,-944
896,18313057,-135,-525,-2337,1126,538,-840
897,18313067,-109,-507,-2254,1427,615,-885
898,18313077,-32,-496,-2155,1652,774,-930
899,18313087,72,-548,-2039,1834,837,-844
900,18313097,183,-640,-1967,2032,913,-708
901,18313107,231,-736,-1857,2181,968,-575
902,18313117,284,-784,-1796,2266,950,-509
903,18313127,324,-787,-1785,2308,831,-507
904,18313137,353,-743,-1758,2387,669,-554
905,18313147,368,-733,-1734,2553,514,-617
906,18313157,452,-815,-1678,2788,388,-677
907,18313167,533,-926,-1669,2912,260,-703
908,18313177,520,-1061,-1642,2939,105,-684
909,18313187,540,-1188,-1641,2743,24,-768
910,18313184,541,-1188,-1641,2743,23,-693
911,18313194,546,-1234,-1685,2362,-58,-691
912,18313204,542,-1244,-1803,1941,-120,-727
913,18313214,513,-1278,-1918,1631,-149,-768
914,18313224,469,-1278,-2127,1467,-218,-819
915,18313234,498,-1227,-2299,1397,-307,-1005
916,18313244,466,-1172,-2450,1428,-372,-1216
917,18313254,451,-1029,-2596,1493,-240,-1359
918,18313264,509,-925,-2634,1627,-19,-1477
919,18313274,564,-888,-2615,1852,206,-1525
920,18313284,543,-894,-2626,1936,364,-1519
921,18313294,522,-993,-2656,1883,443,-1445
922,18313304,469,-1023,-2706,1676,550,-1355
923,18313314,453,-1035,-2714,1406,731,-1346
924,18313324,419,-1017,-2674,1049,959,-1373
925,18313334,490,-921,-2583,702,1263,-1392
926,18313344,517,-839,-2475,446,1555,-1406
927,18313354,531,-738,-2325,278,1846,-1386
928,18313364,597,-683,-2156,283,2092,-1331
929,18313374,622,-650,-1989,314,2279,-1279
930,18313384,641,-575,-1873,317,2414,-1185
931,18313394,608,-590,-1729,397,2525,-1084
932,18313404,640,-647,-1598,495,2723,-943
933,18313414,668,-685,-1525,469,2873,-824
934,18313424,582,-653,-1541,492,2877,-802
935,18313434,588,-638,-1403,549,2884,-1024
936,18313431,588,-639,-1403,550,2884,-886
937,18313441,674,-555,-1367,590,3121,-943
938,18313451,697,-509,-1266,523,3444,-857
939,18313461,704,-529,-1087,598,3722,-677
940,18313471,815,-563,-890,675,3930,-567
941,18313481,873,-589,-724,715,3881,-515
942,18313491,852,-569,-708,781,3681,-475
943,18313501,838,-554,-653,865,3540,-489
944,18313511,908,-531,-511,930,3767,-467
945,18313521,948,-563,-307,1020,4038,-392
946,18313531,1040,-664,-180,1084,4198,-332
947,18313541,1073,-755,-83,926,4276,-290
948,18313551,1105,-727,47,652,4294,-272
949,18313561,1243,-738,222,537,4229,-359
950,18313571,1386,-734,401,550,4035,-401
951,18313581,1374,-635,433,439,3644,-441
952,18313591,1435,-594,448,467,3390,-551
953,18313601,1397,-530,460,411,3284,-581
954,18313611,1504,-516,558,385,3400,-608
955,18313621,1587,-657,745,393,3420,-667
956,18313631,1630,-589,810,57,3270,-742
957,18313641,1743,-522,847,-206,3125,-832
958,18313651,1852,-552,916,-245,2928,-892
959,18313661,1895,-519,954,-327,2603,-936
960,18313671,1888,-457,925,-369,2252,-976
961,18313681,1978,-399,963,-378,2061,-1024
962,18313677,1979,-399,963,-377,2060,-980
963,18313687,1968,-366,997,-309,1868,-937
964,18313697,1960,-302,1012,-297,1680,-933
965,18313707,1984,-262,991,-373,1544,-866
966,18313717,2010,-228,970,-407,1473,-756
967,18313727,1993,-200,981,-362,1445,-617
968,18313737,1972,-220,1036,-242,1403,-467
969,18313747,2008,-258,1080,-128,1328,-388
970,18313757,1959,-198,970,-60,1135,-307
971,18313767,1882,-169,938,59,971,-153
972,18313777,1854,-298,1034,358,795,-46
973,18313787,1920,-388,1096,439,623,-51
974,18313797,1876,-327,1011,304,438,-90
975,18313807,1863,-306,998,260,302,-62
976,18313817,1897,-388,1072,390,180,-21
977,18313827,1865,-386,1096,346,22,-48
978,18313837,1834,-375,1088,234,-220,-142
979,18313847,1875,-339,1073,177,-471,-216
980,18313857,1990,-313,1026,208,-820,-260
981,18313867,1843,-331,953,322,-1380,-123
982,18313877,1774,-268,887,378,-1834,8
983,18313887,1777,-289,796,511,-2033,71
984,18313897,1644,-255,660,604,-2166,227
985,18313907,1692,-318,701,796,-2090,319
986,18313917,1744,-410,715,1078,-2066,408
987,18313927,1848,-556,761,1299,-2235,256
988,18313924,1848,-557,762,1299,-2236,449
989,18313934,1832,-617,786,1278,-2678,393
990,18313944,1859,-586,696,1097,-3209,329
991,18313954,1855,-575,707,1010,-3859,271
992,18313964,1793,-527,738,1048,-4594,234
993,18313974,1660,-463,647,1100,-5389,236
994,18313984,1556,-408,530,1277,-6232,312
995,18313994,1330,-447,461,1665,-7100,476
996,18314004,1206,-513,428,2158,-7766,621
997,18314014,1248,-575,454,2531,-8302,756
998,18314024,1197,-735,566,2945,-8997,1192
999,18314034,504,-1062,675,3236,-10137,1776
1000,18314044,93,-1113,647,2976,-10840,1712
1001,18314054,-136,-1236,746,2715,-11079,1373
1002,18314064,-685,-1577,1001,2606,-11684,1357
1003,18314074,-1412,-1883,1132,2197,-12305,1222
1004,18314084,-2031,-2240,1196,1462,-12647,722
1005,18314094,-2643,-2381,903,598,-12940,207
1006,18314104,-3013,-2621,527,-282,-12849,-475
1007,18314114,-3225,-2624,-54,-1291,-12581,-1105
1008,18314124,-3259,-2219,-787,-2436,-12119,-1759
1009,18314134,-3196,-1714,-1805,-2995,-11544,-2473
1010,18314144,-3146,-1505,-2886,-2924,-10856,-3057
1011,18314154,-3038,-1089,-3819,-2392,-10234,-3322
1012,18314164,-2917,-1177,-3954,-1155,-9141,-3645
1013,18314174,-2846,-1164,-3680,8,-7710,-3586
1014,18314171,-2845,-1164,-3679,8,-7711,-3493
1015,18314181,-2951,-852,-3196,427,-5973,-3359
1016,18314191,-2719,-773,-2533,802,-4088,-3251
1017,18314201,-2572,-718,-1941,763,-2891,-3152
1018,18314211,-2271,-519,-1475,304,-2277,-3251
1019,18314221,-2072,-419,-1139,-47,-2194,-3244
1020,18314231,-1835,-202,-897,-354,-2295,-3138
1021,18314241,-1877,-65,-691,-374,-2298,-2822
1022,18314251,-2024,59,-679,-400,-2171,-2286
1023,18314261,-2255,15,-722,-390,-2046,-1611
1024,18314271,-2482,45,-1031,-443,-2175,-994
1025,18314281,-2722,10,-1380,-453,-2306,-580
1026,18314291,-2823,9,-1805,-368,-2437,-259
1027,18314301,-2864,-104,-2170,-139,-2382,-51
1028,18314311,-2882,-195,-2422,126,-2128,38
1029,18314321,-2792,-284,-2483,380,-1688,23
1030,18314331,-2635,-408,-2338,662,-1154,-15
1031,18314341,-2414,-476,-2073,801,-536,-60
1032,18314351,-2241,-621,-1731,938,79,-52
1033,18314361,-2063,-703,-1429,932,545,-38
1034,18314371,-1855,-766,-1201,827,838,12
1035,18314381,-1725,-775,-1013,708,1038,71
1036,18314391,-1648,-803,-915,592,1093,142
1037,18314401,-1567,-800,-900,461,1029,205
1038,18314411,-1472,-785,-917,416,877,277
1039,18314421,-1452,-855,-957,453,654,256
1040,18314417,-1452,-856,-956,454,654,308
1041,18314427,-1413,-867,-1049,493,427,265
1042,18314437,-1381,-877,-1135,583,270,208
1043,18314447,-1366,-892,-1190,718,215,146
1044,18314457,-1345,-909,-1228,778,237,69
1045,18314467,-1326,-907,-1262,801,243,22
1046,18314477,-1303,-859,-1282,786,287,-55
1047,18314487,-1329,-811,-1302,792,365,-124
1048,18314497,-1338,-728,-1337,819,466,-165
1049,18314507,-1318,-680,-1338,863,592,-192
1050,18314517,-1329,-651,-1334,918,708,-185
1051,18314527,-1341,-642,-1321,930,764,-157
1052,18314537,-1325,-595,-1346,867,789,-140
1053,18314547,-1330,-529,-1373,822,773,-65
1054,18314557,-1318,-530,-1362,843,692,72
1055,18314567,-1447,-586,-1435,883,429,333
1056,18314577,-1481,-537,-1571,711,329,422
1057,18314587,-1574,-484,-1685,635,370,461
1058,18314597,-1708,-491,-1800,578,464,514
1059,18314607,-1891,-466,-2003,498,617,569
1060,18314617,-2172,-426,-2289,316,848,593
1061,18314627,-2439,-318,-2608,129,1222,573
1062,18314637,-2668,-95,-2863,-67,1837,514
1063,18314647,-2649,-99,-2966,-27,2726,561
1064,18314657,-2783,75,-3167,3,3573,784
1065,18314667,-2874,143,-3358,106,4571,768
1066,18314664,-2873,142,-3357,106,4570,919
1067,18314674,-2840,221,-3351,220,5613,1233
1068,18314684,-2853,169,-3293,208,6680,1770
1069,18314694,-2905,164,-3350,6,7617,2408
1070,18314704,-2966,136,-3355,-360,8479,3004
1071,18314714,-2944,26,-3006,-762,9130,3552
1072,18314724,-2941,73,-2722,-1204,9751,4210
1073,18314734,-2835,-273,-2269,-1322,10546,4984
1074,18314744,-2689,-708,-1833,-1464,11246,5881
1075,18314754,-2441,-1161,-1563,-1800,11751,6432
1076,18314764,-2263,-1550,-1288,-2169,12161,6683
1077,18314774,-1835,-1706,-1086,-2466,12210,6243
1078,18314784,-1227,-1759,-999,-2584,11849,5232
1079,18314794,-788,-1442,-990,-2685,11026,4388
1080,18314804,-393,-1129,-948,-2195,10125,3772
1081,18314814,-84,-1040,-836,-1177,9087,3347
1082,18314824,1,-812,-824,-105,7853,3034
1083,18314834,101,-818,-656,1139,7114,2736
1084,18314844,259,-982,-382,2140,6744,2470
1085,18314854,426,-1215,19,2755,6536,2330
1086,18314864,633,-1528,337,3016,6198,2068
1087,18314874,734,-1709,446,2901,5671,1848
1088,18314884,759,-1792,451,2580,5145,1598
1089,18314894,745,-1852,502,2268,4826,1365
1090,18314904,765,-1861,640,2021,4688,981
1091,18314914,1004,-1855,897,1765,4614,256
1092,18314911,1004,-1856,898,1765,4613,431
1093,18314921,1194,-1781,1035,1505,4295,21
1094,18314931,1063,-1557,1032,1121,3627,-209
1095,18314941,1036,-1315,998,801,3244,-454
1096,18314951,1172,-1276,1052,741,3186,-601
1097,18314961,1250,-1236,1142,678,2985,-744
1098,18314971,1184,-1075,1005,365,2747,-875
1099,18314981,1242,-943,983,132,2750,-949
1100,18314991,1366,-889,1068,145,2730,-1058
1101,18315001,1517,-839,1149,158,2522,-1155
1102,18315011,1546,-759,1076,131,2051,-1180
1103,18315021,1527,-619,964,54,1583,-1096
1104,18315031,1449,-424,799,74,1319,-951
1105,18315041,1493,-393,811,319,1408,-815
1106,18315051,1598,-493,934,647,1418,-767
1107,18315061,1734,-529,990,723,1246,-736
1108,18315071,1777,-526,1018,614,984,-642
1109,18315081,1702,-491,929,507,714,-554
1110,18315091,1738,-468,879,522,626,-529
1111,18315101,1788,-453,884,561,576,-524
1112,18315111,1860,-410,888,584,602,-575
1113,18315121,1950,-368,925,581,489,-614
1114,18315131,1985,-287,927,539,216,-566
1115,18315141,1928,-253,861,489,-104,-474
1116,18315151,1797,-127,778,357,-342,-329
1117,18315161,1871,-90,802,403,-350,-256
1118,18315157,1872,-90,802,404,-351,-236
1119,18315167,1887,-121,848,634,-352,-103
1120,18315177,1894,-173,904,795,-376,60
1121,18315187,1902,-244,965,967,-494,171
1122,18315197,1953,-307,947,1037,-565,203
1123,18315207,1981,-323,917,960,-595,229
1124,18315217,1957,-306,855,866,-733,259
1125,18315227,1952,-297,772,878,-843,305
1126,18315237,1971,-362,732,969,-889,340
1127,18315247,2009,-416,762,1038,-894,354
1128,18315257,2090,-479,800,1084,-873,273
1129,18315267,2125,-502,752,1059,-904,191
1130,18315277,2179,-531,694,1003,-895,131
1131,18315287,2125,-514,640,940,-919,83
1132,18315297,2144,-473,613,832,-906,31
1133,18315307,2164,-480,577,783,-879,-11
1134,18315317,2126,-459,508,761,-872,-28
1135,18315327,2087,-472,458,779,-746,-26
1136,18315337,2145,-483,444,844,-589,-73
1137,18315347,2161,-484,420,834,-498,-121
1138,18315357,2092,-470,388,734,-542,-124
1139,18315367,2080,-462,337,689,-568,-130
1140,18315377,2079,-461,312,638,-576,-125
1141,18315387,2044,-467,297,594,-628,-126
1142,18315397,2003,-467,209,551,-745,-117
1143,18315407,1965,-380,41,530,-788,-256
1144,18315404,1966,-380,41,530,-789,-58
1145,18315414,1855,-407,-1,680,-643,102
1146,18315424,1884,-516,84,942,-370,154
1147,18315434,1945,-558,179,1036,-204,118
1148,18315444,1953,-600,209,1028,-225,112
1149,18315454,1936,-614,232,1032,-266,85
1150,18315464,1936,-611,276,1037,-297,30
1151,18315474,1947,-631,268,1026,-341,-10
1152,18315484,1933,-621,252,984,-320,-76
1153,18315494,1912,-539,225,875,-255,-148
1154,18315504,1956,-521,235,839,-160,-220
1155,18315514,2021,-432,218,793,-101,-242
1156,18315524,1987,-428,251,830,-97,-182
1157,18315534,1979,-421,282,866,-88,-187
1158,18315544,2031,-390,298,829,-68,-209
1159,18315554,2030,-396,293,822,-113,-204
1160,18315564,2012,-374,285,768,-181,-203
1161,18315574,2010,-329,221,691,-229,-205
1162,18315584,1983,-299,166,685,-198,-184
1163,18315594,1985,-297,134,750,-60,-123
1164,18315604,1992,-360,209,870,63,-31
1165,18315614,2034,-400,244,922,72,-2
1166,18315624,1981,-425,234,875,7,17
1167,18315634,1927,-400,176,830,1,22
1168,18315644,2002,-404,224,843,132,17
1169,18315654,1981,-476,278,899,130,0
1170,18315651,1982,-476,279,900,130,28
1171,18315661,1979,-457,284,837,144,22
1172,18315671,1975,-449,301,818,140,2
1173,18315681,1984,-474,317,815,134,-9
1174,18315691,1984,-445,320,769,139,-36
1175,18315701,1968,-444,352,778,147,-55
1176,18315711,1993,-476,396,797,121,-59
1177,18315721,1997,-433,369,761,91,-50
1178,18315731,1961,-477,387,792,61,-17
1179,18315741,1973,-459,384,782,55,-23
1180,18315751,1977,-439,380,757,51,-18
1181,18315761,1982,-461,397,776,35,-39
1182,18315771,1946,-435,357,754,7,-57
1183,18315781,1973,-426,350,746,19,-65
1184,18315791,2007,-433,377,761,19,-83
1185,18315801,1987,-411,369,740,-17,-82
1186,18315811,1945,-405,301,723,-69,-60
1187,18315821,1950,-382,307,730,-39,-33
1188,18315831,1978,-432,337,782,18,-25
1189,18315841,1930,-442,330,768,4,-5
1190,18315851,1977,-444,368,750,5,-10
1191,18315861,1991,-476,389,758,-30,-8
1192,18315871,1989,-481,393,744,-71,-23
1193,18315881,1965,-502,407,703,-136,-49
1194,18315891,1981,-477,392,652,-232,-79
1195,18315901,1935,-443,300,585,-284,-256
