sequence,timestamp_ms,accel_x,accel_y,accel_z,gyro_x,gyro_y,gyro_z
0,18401249,-310,-1678,-1095,692,-52,-31
1,18401259,-275,-1679,-1080,702,-47,-34
2,18401269,-289,-1693,-1085,696,-53,-29
3,18401279,-332,-1688,-1097,692,-52,-33
4,18401289,-298,-1674,-1092,691,-51,-33
5,18401299,-291,-1683,-1086,697,-51,-34
6,18401309,-315,-1663,-1090,689,-54,-32
7,18401319,-310,-1671,-1084,694,-53,-30
8,18401329,-297,-1677,-1088,697,-53,-28
9,18401339,-307,-1685,-1091,700,-50,-34
10,18401349,-324,-1676,-1087,694,-51,-28
11,18401359,-302,-1690,-1085,689,-52,-27
12,18401369,-288,-1679,-1105,685,-54,-29
13,18401379,-305,-1677,-1089,694,-52,-32
14,18401389,-303,-1682,-1087,696,-52,-31
15,18401399,-299,-1668,-1088,693,-51,-32
16,18401409,-304,-1685,-1095,695,-52,-30
17,18401419,-304,-1669,-1098,703,-51,-37
18,18401429,-298,-1682,-1102,698,-52,-38
19,18401439,-293,-1676,-1094,697,-54,-32
20,18401449,-307,-1683,-1084,704,-50,-30
21,18401459,-301,-1685,-1090,705,-51,-33
22,18401469,-305,-1684,-1089,696,-52,-31
23,18401479,-302,-1672,-1087,700,-49,-33
24,18401489,-319,-1674,-1088,698,-53,-34
25,18401499,-297,-1678,-1097,701,-47,-256
26,18401495,-296,-1678,-1097,702,-47,-34
27,18401505,-289,-1673,-1094,694,-49,-28
28,18401515,-295,-1675,-1101,693,-50,-34
29,18401525,-302,-1668,-1091,691,-50,-26
30,18401535,-277,-1678,-1107,698,-52,-29
31,18401545,-291,-1678,-1092,705,-52,-36
32,18401555,-308,-1687,-1111,705,-54,-36
33,18401565,-291,-1678,-1087,704,-54,-35
34,18401575,-286,-1685,-1095,702,-58,-33
35,18401585,-315,-1680,-1086,699,-54,-28
36,18401595,-327,-1677,-1078,697,-51,-30
37,18401605,-292,-1678,-1097,697,-53,-34
38,18401615,-299,-1670,-1086,696,-52,-36
39,18401625,-308,-1678,-1083,700,-50,-39
40,18401635,-301,-1675,-1100,697,-51,-36
41,18401645,-290,-1664,-1087,695,-51,-33
42,18401655,-318,-1682,-1090,697,-50,-35
43,18401665,-298,-1690,-1095,694,-51,-34
44,18401675,-274,-1673,-1099,700,-47,-39
45,18401685,-293,-1683,-1091,699,-55,-34
46,18401695,-312,-1683,-1098,697,-55,-29
47,18401705,-298,-1676,-1084,694,-52,-29
48,18401715,-295,-1690,-1101,681,-58,-25
49,18401725,-326,-1674,-1104,675,-59,-29
50,18401735,-311,-1688,-1088,682,-60,-37
51,18401745,-296,-1673,-1086,682,-62,-256
52,18401742,-296,-1674,-1085,682,-63,-37
53,18401752,-302,-1668,-1085,684,-63,-38
54,18401762,-313,-1680,-1093,686,-63,-41
55,18401772,-295,-1678,-1098,677,-63,-40
56,18401782,-310,-1673,-1109,679,-67,-37
57,18401792,-337,-1677,-1105,685,-70,-42
58,18401802,-334,-1704,-1058,706,-63,-45
59,18401812,-297,-1680,-1061,709,-58,-53
60,18401822,-292,-1692,-1076,656,-65,-54
61,18401832,-295,-1712,-1076,659,-65,-44
62,18401842,-230,-1670,-1130,616,-50,-52
63,18401852,-282,-1644,-1134,606,-85,-34
64,18401862,-311,-1630,-1130,605,-69,-29
65,18401872,-325,-1689,-1097,690,-69,-29
66,18401882,-284,-1657,-1098,662,-72,-47
67,18401892,-299,-1691,-1077,678,-59,-22
68,18401902,-309,-1684,-1097,662,-85,-40
69,18401912,-312,-1643,-1116,628,-79,-41
70,18401922,-282,-1663,-1126,658,-66,-34
71,18401932,-312,-1652,-1138,664,-70,-32
72,18401942,-298,-1648,-1114,687,-61,-36
73,18401952,-307,-1679,-1087,713,-51,-20
74,18401962,-297,-1706,-1093,712,-55,-16
75,18401972,-319,-1701,-1082,687,-60,-17
76,18401982,-302,-1681,-1107,670,-63,-16
77,18401992,-284,-1674,-1116,662,-61,-256
78,18401989,-283,-1675,-1115,663,-62,-16
79,18401999,-325,-1654,-1113,666,-59,-16
80,18402009,-285,-1732,-1112,674,-56,-12
81,18402019,-342,-1630,-1107,582,-62,6
82,18402029,-317,-1688,-1123,666,-76,-15
83,18402039,-317,-1638,-1116,669,-41,-40
84,18402049,-294,-1682,-1105,708,-43,-34
85,18402059,-290,-1664,-1111,688,-48,-39
86,18402069,-319,-1670,-1107,694,-48,-33
87,18402079,-304,-1676,-1111,693,-45,-35
88,18402089,-299,-1674,-1106,693,-50,-36
89,18402099,-297,-1671,-1111,692,-52,-33
90,18402109,-308,-1669,-1111,689,-53,-32
91,18402119,-304,-1670,-1116,685,-54,-29
92,18402129,-304,-1659,-1119,688,-52,-25
93,18402139,-327,-1670,-1103,698,-51,-26
94,18402149,-315,-1669,-1111,698,-51,-31
95,18402159,-295,-1669,-1104,698,-48,-31
96,18402169,-296,-1679,-1119,694,-51,-32
97,18402179,-321,-1645,-1116,684,-52,-32
98,18402189,-303,-1650,-1106,684,-50,-29
99,18402199,-293,-1667,-1119,686,-54,-24
100,18402209,-302,-1667,-1116,694,-54,-36
101,18402219,-318,-1672,-1111,702,-48,-35
102,18402229,-288,-1671,-1123,700,-56,-36
103,18402239,-298,-1679,-1101,689,-58,-256
104,18402235,-298,-1680,-1101,690,-58,-37
105,18402245,-326,-1658,-1108,690,-54,-37
106,18402255,-300,-1665,-1131,680,-59,-32
107,18402265,-298,-1662,-1120,680,-58,-35
108,18402275,-320,-1681,-1118,683,-56,-35
109,18402285,-309,-1667,-1107,684,-56,-37
110,18402295,-298,-1667,-1108,686,-55,-35
111,18402305,-296,-1678,-1113,678,-55,-32
112,18402315,-287,-1704,-1092,666,-50,-31
113,18402325,-262,-1703,-1076,650,-43,-22
114,18402335,-318,-1665,-1111,612,-47,-7
115,18402345,-285,-1646,-1095,560,-56,33
116,18402355,-247,-1754,-1033,606,41,17
117,18402365,-408,-1623,-1141,497,-31,60
118,18402375,-373,-2198,-1201,505,-42,28
119,18402385,-276,-1694,-1118,250,39,1
120,18402395,-212,-1622,-1285,297,38,38
121,18402405,-126,-1515,-1257,310,140,57
122,18402415,-187,-1521,-1252,395,190,137
123,18402425,-438,-1585,-1264,506,155,102
124,18402435,-227,-1862,-1107,708,115,163
125,18402445,-398,-2037,-1066,751,218,33
126,18402455,-541,-2126,-1123,608,237,-35
127,18402465,-527,-2144,-1085,379,636,-155
128,18402475,-487,-2018,-982,96,1285,53
129,18402485,-290,-1843,-997,435,1317,-256
130,18402482,-290,-1844,-997,436,1317,-41
131,18402492,-143,-2040,-743,-164,1824,-186
132,18402502,-128,-1852,-960,-270,1766,96
133,18402512,-317,-1632,-1143,-1183,1197,487
134,18402522,-26,-1864,-1032,-406,1554,58
135,18402532,-217,-1825,-1122,-646,1252,305
136,18402542,-108,-1902,-1248,-1049,1222,287
137,18402552,-315,-1882,-1397,-1456,1196,345
138,18402562,-61,-1493,-1124,-1603,1444,215
139,18402572,276,-1609,-1201,-1180,2036,-436
140,18402582,-18,-2026,-1033,-593,1617,-385
141,18402592,53,-1239,-897,-195,1547,-723
142,18402602,134,-1774,-1162,210,1336,-1143
143,18402612,248,-1789,-1220,796,1046,-1236
144,18402622,43,-1501,-1365,-466,729,-1132
145,18402632,112,-1638,-1212,-86,628,-1186
146,18402642,127,-1383,-1376,-249,424,-1262
147,18402652,231,-1409,-1326,-283,521,-1409
148,18402662,217,-1234,-1360,-547,414,-1378
149,18402672,313,-1046,-1383,-724,382,-1390
150,18402682,373,-843,-1373,-849,243,-1345
151,18402692,407,-780,-1369,-777,99,-1228
152,18402702,404,-665,-1382,-668,-93,-1113
153,18402712,402,-637,-1389,-533,-289,-977
154,18402722,369,-697,-1466,-332,-457,-852
155,18402732,470,-551,-1523,-256,-571,-1024
156,18402729,471,-552,-1523,-256,-572,-895
157,18402739,158,-938,-1531,443,-835,-664
158,18402749,192,-700,-1760,-162,-970,-578
159,18402759,97,-630,-1852,-238,-1022,-489
160,18402769,84,-640,-1887,-266,-839,-488
161,18402779,129,-681,-1860,-239,-658,-405
162,18402789,128,-637,-1812,-377,-531,-351
163,18402799,136,-571,-1859,-547,-496,-341
164,18402809,154,-437,-1932,-646,-543,-286
165,18402819,157,-394,-1971,-637,-552,-214
166,18402829,133,-371,-2008,-568,-475,-138
167,18402839,125,-371,-2001,-542,-381,-71
168,18402849,137,-378,-1981,-530,-289,6
169,18402859,127,-377,-2008,-549,-239,89
170,18402869,89,-379,-2043,-589,-231,198
171,18402879,87,-405,-2081,-559,-180,276
172,18402889,94,-465,-2092,-441,-95,363
173,18402899,64,-550,-2099,-189,-96,446
174,18402909,28,-652,-2088,115,-177,505
175,18402919,12,-652,-2070,255,-220,435
176,18402929,-16,-625,-2067,242,-217,366
177,18402939,-2,-653,-2027,348,-186,347
178,18402949,29,-639,-1965,469,-133,325
179,18402959,29,-651,-1939,531,-122,320
180,18402969,-26,-667,-1959,583,-114,355
181,18402979,8,-700,-1931,689,-12,256
182,18402975,9,-700,-1931,690,-13,364
183,18402985,73,-736,-1854,878,39,367
184,18402995,183,-1259,-2001,1042,-22,369
185,18403005,-160,-942,-1940,829,-173,553
186,18403015,18,-723,-1998,535,-207,135
187,18403025,159,-632,-1910,647,33,-239
188,18403035,133,-699,-1860,788,-16,-45
189,18403045,107,-692,-1801,746,-51,14
190,18403055,197,-837,-1907,708,-30,-32
191,18403065,81,-649,-2051,405,-91,37
192,18403075,69,-643,-1985,345,6,-11
193,18403085,170,-716,-1887,587,200,-55
194,18403095,181,-659,-1860,523,154,-61
195,18403105,152,-642,-1854,499,80,-25
196,18403115,151,-694,-1868,610,71,-1
197,18403125,136,-640,-1899,612,-47,65
198,18403135,126,-667,-1924,705,-132,88
199,18403145,80,-678,-1877,841,-131,129
200,18403155,148,-781,-1846,866,-93,149
201,18403165,108,-748,-1840,836,-122,129
202,18403175,50,-655,-1928,605,-104,112
203,18403185,124,-638,-1942,623,22,23
204,18403195,125,-658,-1924,685,82,102
205,18403205,102,-689,-1874,693,147,172
206,18403215,155,-658,-1853,616,227,97
207,18403225,174,-668,-1830,577,213,0
208,18403222,175,-668,-1830,578,213,92
209,18403232,193,-643,-1856,465,180,135
210,18403242,158,-689,-1868,428,147,161
211,18403252,149,-692,-1869,409,144,151
212,18403262,180,-691,-1865,415,139,105
213,18403272,176,-634,-1956,391,117,52
214,18403282,176,-645,-1967,431,109,12
215,18403292,182,-649,-2016,514,106,-14
216,18403302,181,-618,-1995,547,123,-41
217,18403312,211,-586,-1965,577,151,-82
218,18403322,209,-548,-1936,565,149,-55
219,18403332,174,-518,-1914,512,149,-21
220,18403342,329,-442,-1974,251,243,-38
221,18403352,155,-590,-1934,89,320,76
222,18403362,293,-490,-1926,106,402,54
223,18403372,246,-479,-1941,45,261,215
224,18403382,189,-535,-1911,282,130,277
225,18403392,229,-582,-1848,504,81,172
226,18403402,236,-622,-1801,653,64,121
227,18403412,224,-655,-1792,680,-31,106
228,18403422,178,-639,-1850,581,-100,104
229,18403432,189,-660,-1857,544,-147,106
230,18403442,190,-682,-1869,512,-153,76
231,18403452,183,-624,-1869,433,-181,33
232,18403462,212,-591,-1872,362,-225,-21
233,18403472,231,-554,-1897,304,-302,-256
234,18403469,231,-554,-1897,305,-302,-29
235,18403479,172,-491,-1950,252,-396,-4
236,18403489,128,-392,-2049,224,-392,-5
237,18403499,145,-399,-2057,376,-201,37
238,18403509,203,-499,-1973,618,-27,64
239,18403519,187,-530,-1922,662,12,65
240,18403529,178,-537,-1914,639,-25,57
241,18403539,190,-485,-1933,588,-46,52
242,18403549,185,-452,-1954,574,-53,49
243,18403559,180,-466,-1957,591,-3,59
244,18403569,194,-508,-1938,636,2,87
245,18403579,199,-487,-1951,588,-2,92
246,18403589,189,-475,-1954,569,-7,74
247,18403599,142,-415,-2018,550,-4,61
248,18403609,181,-396,-2052,580,108,56
249,18403619,206,-418,-1995,659,252,10
250,18403629,188,-348,-1976,550,276,2
251,18403639,215,-364,-1996,398,277,36
252,18403649,176,-357,-2014,393,286,85
253,18403659,204,-403,-1997,531,318,133
254,18403669,282,-343,-1947,430,397,51
255,18403679,300,-424,-1931,552,330,118
256,18403689,235,-567,-1858,888,191,208
257,18403699,246,-691,-1766,1082,76,129
258,18403709,293,-657,-1789,960,2,-20
259,18403719,270,-576,-1836,769,-155,-256
260,18403715,271,-577,-1836,770,-156,-51
261,18403725,265,-546,-1891,633,-233,-56
262,18403735,268,-515,-1904,556,-285,-56
263,18403745,283,-459,-1909,483,-355,-67
264,18403755,288,-441,-1917,422,-418,-65
265,18403765,265,-427,-1910,390,-477,-39
266,18403775,285,-441,-1897,338,-569,1
267,18403785,240,-437,-1944,268,-692,44
268,18403795,136,-399,-1995,208,-739,79
269,18403805,134,-414,-1985,250,-633,49
270,18403815,136,-404,-2000,280,-570,39
271,18403825,56,-364,-2055,283,-519,26
272,18403835,82,-357,-2054,390,-296,-22
273,18403845,123,-366,-1984,535,-142,-36
274,18403855,166,-365,-1969,595,-130,-43
275,18403865,115,-350,-1982,588,-189,2
276,18403875,110,-339,-1991,598,-191,20
277,18403885,130,-318,-2008,620,-168,14
278,18403895,109,-325,-2011,652,-135,2
279,18403905,125,-345,-1982,699,-89,-12
280,18403915,133,-359,-1965,745,-68,-23
281,18403925,146,-369,-1961,738,-56,-33
282,18403935,123,-373,-1969,732,-58,-27
283,18403945,128,-366,-1952,720,-55,-29
284,18403955,165,-348,-1948,697,-69,-31
285,18403965,149,-382,-1957,704,-115,-256
286,18403962,150,-382,-1957,705,-116,-15
287,18403972,93,-373,-1989,716,-170,18
288,18403982,119,-363,-2003,725,-167,-2
289,18403992,137,-364,-1975,756,-116,-21
290,18404002,128,-382,-1953,759,-78,-30
291,18404012,114,-378,-1953,715,-98,-27
292,18404022,147,-363,-1966,677,-126,-21
293,18404032,110,-359,-1985,652,-124,-19
294,18404042,106,-364,-1988,665,-100,-25
295,18404052,105,-353,-1993,679,-75,-27
296,18404062,129,-366,-1977,702,-39,-27
297,18404072,114,-373,-1950,709,-30,-34
298,18404082,133,-362,-1952,691,-37,-44
299,18404092,122,-339,-1967,661,-53,-40
300,18404102,128,-360,-1976,678,-41,-43
301,18404112,116,-361,-1963,674,-57,-37
302,18404122,128,-359,-1959,668,-102,-26
303,18404132,129,-331,-1980,649,-135,-17
304,18404142,97,-335,-2012,658,-117,-14
305,18404152,96,-325,-1996,713,-50,-17
306,18404162,143,-363,-1970,754,-9,-25
307,18404172,128,-368,-1957,749,-12,-30
308,18404182,120,-356,-1957,720,-33,-33
309,18404192,116,-355,-1973,715,-43,-38
310,18404202,123,-353,-2001,700,-45,-36
311,18404212,113,-360,-1986,724,-21,-256
312,18404209,113,-361,-1986,725,-21,-38
313,18404219,122,-349,-1969,735,-25,-44
314,18404229,130,-362,-1985,728,-22,-36
315,18404239,163,-320,-1943,738,-3,-43
316,18404249,206,-296,-1884,758,-20,-21
317,18404259,301,-285,-1796,771,-165,76
318,18404269,210,-249,-1937,850,-424,253
319,18404279,484,-1636,-2447,1173,-695,301
320,18404289,-424,-527,-2097,1081,-1020,577
321,18404299,-45,-121,-2355,301,-1042,181
322,18404309,60,-338,-2056,1138,-270,-26
323,18404319,77,-508,-1855,1240,-42,140
324,18404329,29,-414,-1906,1049,-71,74
325,18404339,-22,-351,-1987,878,-145,55
326,18404349,-141,-396,-2030,980,-8,53
327,18404359,-85,-461,-1992,1146,244,-38
328,18404369,35,-487,-1908,1167,440,-150
329,18404379,117,-504,-1877,1090,503,-244
330,18404389,52,-446,-1954,854,416,-215
331,18404399,89,-484,-2013,730,322,-205
332,18404409,347,-1425,-2516,648,312,-206
333,18404419,-613,115,-1813,-140,-26,154
334,18404429,657,-425,-1907,875,891,-770
335,18404439,113,-566,-1813,952,555,-326
336,18404449,193,-459,-2013,416,190,-70
337,18404459,83,-452,-2122,183,126,-256
338,18404455,83,-453,-2122,184,126,-143
339,18404465,-98,-348,-2115,291,65,-79
340,18404475,184,-370,-2181,155,146,-296
341,18404485,31,-322,-2194,25,263,-291
342,18404495,34,-523,-2012,774,205,-148
343,18404505,222,-413,-1979,731,330,-410
344,18404515,144,-357,-1953,526,217,-313
345,18404525,118,-449,-1885,627,152,-207
346,18404535,30,-535,-1833,598,85,-186
347,18404545,84,-605,-1962,685,-114,-108
348,18404555,-54,-784,-1986,811,-415,-19
349,18404565,-44,-777,-2059,865,-432,-149
350,18404575,-30,-721,-2106,738,-538,-217
351,18404585,-88,-782,-2042,777,-636,-284
352,18404595,-120,-760,-2088,627,-739,-342
353,18404605,-156,-701,-2167,338,-909,-370
354,18404615,-214,-591,-2226,91,-1090,-392
355,18404625,-302,-461,-2242,-11,-1210,-460
356,18404635,-323,-381,-2185,59,-1198,-548
357,18404645,-252,-304,-2143,182,-1119,-592
358,18404655,-231,-273,-2098,365,-1059,-624
359,18404665,-267,-326,-1994,717,-908,-564
360,18404675,-177,-417,-1823,1088,-593,-483
361,18404685,-113,-449,-1688,1316,-405,-449
362,18404695,-119,-478,-1625,1342,-448,-473
363,18404705,-88,-450,-1655,1173,-518,-512
364,18404702,-88,-451,-1655,1173,-519,-464
365,18404712,-107,-455,-1763,974,-647,-421
366,18404722,-87,-429,-1880,785,-763,-418
367,18404732,-124,-460,-1953,749,-876,-498
368,18404742,-123,-520,-1968,809,-913,-547
369,18404752,-101,-513,-2028,784,-894,-640
370,18404762,-119,-467,-2051,761,-825,-761
371,18404772,-95,-383,-2083,769,-744,-844
372,18404782,-63,-293,-2096,770,-676,-871
373,18404792,-39,-264,-2102,783,-611,-864
374,18404802,-145,-269,-2105,769,-585,-802
375,18404812,-157,-323,-2237,654,-497,-663
376,18404822,-259,-404,-2525,407,-424,-522
377,18404832,-372,-464,-2882,125,-394,-379
378,18404842,-598,-416,-3285,6,-419,-412
379,18404852,-852,-296,-3768,-3,-240,-550
380,18404862,-1042,-219,-4171,50,443,-678
381,18404872,-1144,-132,-4195,273,1470,-779
382,18404882,-1072,-252,-4065,597,2434,-816
383,18404892,-1133,-396,-4031,688,3184,-694
384,18404902,-1184,-322,-3912,470,3719,-531
385,18404912,-1089,-379,-3667,520,4364,-536
386,18404922,-1004,-359,-3453,425,5043,-493
387,18404932,-931,-246,-3157,362,5553,-479
388,18404942,-838,-183,-2911,638,5978,-666
389,18404952,-738,-37,-2713,831,6464,-768
390,18404949,-738,-38,-2713,832,6464,-698
391,18404959,-565,-32,-2354,1152,7074,-767
392,18404969,-398,29,-1981,1505,7649,-843
393,18404979,-184,-76,-1523,1924,7964,-901
394,18404989,145,-233,-1155,2325,8011,-895
395,18404999,300,-281,-884,2211,7645,-899
396,18405009,292,-285,-941,1856,7205,-894
397,18405019,215,-236,-898,1517,7001,-862
398,18405029,332,-312,-704,1505,7115,-895
399,18405039,473,-220,-429,1379,7175,-990
400,18405049,557,-241,-104,1358,6888,-1117
401,18405059,500,-122,-76,1377,6403,-1166
402,18405069,504,-97,20,1434,6320,-1217
403,18405079,521,-114,191,1648,6339,-1360
404,18405089,603,-12,356,1621,6255,-1515
405,18405099,663,8,609,1662,6135,-1663
406,18405109,767,-73,826,1666,5946,-1733
407,18405119,764,-106,876,1374,5669,-1785
408,18405129,697,-28,842,888,5415,-1743
409,18405139,695,59,861,666,5462,-1758
410,18405149,667,90,926,776,5473,-1789
411,18405159,707,153,1086,1027,5469,-1843
412,18405169,802,41,1295,1342,5367,-1934
413,18405179,778,46,1446,1312,5099,-2025
414,18405189,763,152,1580,1123,4719,-2057
415,18405199,869,134,1763,1223,4496,-2305
416,18405195,869,134,1764,1223,4496,-2131
417,18405205,895,187,1856,1157,4220,-2180
418,18405215,941,327,1886,923,3918,-2210
419,18405225,904,521,1868,774,3612,-2163
420,18405235,856,619,1866,797,3368,-2063
421,18405245,794,674,1867,863,3281,-1975
422,18405255,778,783,1942,902,3206,-1894
423,18405265,841,871,2062,1067,3115,-1856
424,18405275,759,925,2123,1176,2872,-1769
425,18405285,658,1069,2116,1187,2646,-1623
426,18405295,712,1002,2262,1320,2552,-1571
427,18405305,722,1000,2440,1317,2278,-1643
428,18405315,658,1175,2556,1019,1977,-1739
429,18405325,641,1396,2638,760,1776,-1740
430,18405335,716,1527,2717,701,1641,-1650
431,18405345,844,1529,2830,684,1425,-1555
432,18405355,932,1611,2804,471,1063,-1332
433,18405365,947,1711,2644,184,626,-961
434,18405375,994,1687,2457,138,281,-573
435,18405385,1010,1545,2252,305,47,-228
436,18405395,1027,1322,2099,504,-250,142
437,18405405,1020,1173,1868,605,-537,430
438,18405415,982,998,1701,718,-771,704
439,18405425,922,795,1534,877,-850,919
440,18405435,1012,431,1503,977,-829,1044
441,18405445,1037,196,1477,909,-957,768
442,18405442,1038,195,1478,910,-957,853
443,18405452,996,219,1406,619,-1094,560
444,18405462,1043,249,1376,468,-1056,290
445,18405472,1112,271,1352,389,-1011,125
446,18405482,1077,321,1300,394,-1020,8
447,18405492,1041,384,1256,406,-966,-32
448,18405502,1063,449,1253,463,-790,-81
449,18405512,1149,495,1398,591,-648,-173
450,18405522,1132,566,1538,634,-590,-225
451,18405532,1094,845,1277,786,-474,-272
452,18405542,1563,384,1882,2182,204,-800
453,18405552,1297,757,1659,997,-534,-272
454,18405562,1143,971,1689,423,-668,171
455,18405572,1324,758,1718,894,-541,13
456,18405582,1316,783,1611,908,-573,57
457,18405592,1224,826,1504,656,-682,259
458,18405602,1228,761,1520,706,-639,272
459,18405612,1292,712,1570,761,-621,187
460,18405622,1325,733,1584,683,-656,163
461,18405632,1344,707,1549,620,-694,177
462,18405642,1357,704,1481,613,-763,205
463,18405652,1396,695,1397,609,-775,263
464,18405662,1383,656,1353,627,-749,309
465,18405672,1379,594,1350,702,-762,339
466,18405682,1396,575,1308,752,-782,336
467,18405692,1358,579,1271,768,-779,256
468,18405688,1358,579,1271,768,-779,362
469,18405698,1360,525,1347,814,-752,354
470,18405708,1421,535,1409,871,-733,283
471,18405718,1435,537,1500,860,-812,240
472,18405728,1408,571,1503,841,-923,224
473,18405738,1394,626,1516,791,-996,239
474,18405748,1424,631,1507,797,-1059,236
475,18405758,1421,641,1478,815,-1100,238
476,18405768,1385,675,1490,792,-1157,281
477,18405778,1418,698,1533,847,-1261,315
478,18405788,1437,701,1503,942,-1404,377
479,18405798,1411,702,1474,955,-1561,487
480,18405808,1398,684,1486,959,-1705,548
481,18405818,1496,687,1498,965,-1814,543
482,18405828,1528,696,1437,918,-1937,516
483,18405838,1536,720,1401,835,-2056,523
484,18405848,1590,721,1422,815,-2214,527
485,18405858,1637,714,1386,837,-2447,531
486,18405868,1547,738,1322,829,-2745,545
487,18405878,1466,753,1165,828,-2970,640
488,18405888,1482,716,987,840,-2859,697
489,18405898,1529,711,873,832,-2567,738
490,18405908,1608,622,893,840,-2288,731
491,18405918,1728,533,996,886,-2125,720
492,18405928,1866,489,1068,883,-2194,722
493,18405938,1926,491,1153,837,-2509,512
494,18405935,1927,490,1154,837,-2509,716
495,18405945,1955,466,1183,804,-3070,742
496,18405955,1940,449,1076,754,-3830,788
497,18405965,1848,452,863,670,-4572,880
498,18405975,1829,399,694,635,-5151,969
499,18405985,1823,354,582,622,-5562,975
500,18405995,1800,372,511,622,-5859,916
501,18406005,1451,697,33,664,-6073,825
502,18406015,2154,1155,-245,1206,-5584,1276
503,18406025,1036,-258,80,3785,-4964,2422
504,18406035,1674,179,-205,2838,-3886,1733
505,18406045,1641,178,-121,2163,-2826,1526
506,18406055,1769,291,-36,1893,-2439,1313
507,18406065,1894,248,-109,1942,-2375,1300
508,18406075,1756,275,-193,2051,-2540,1352
509,18406085,1744,141,-234,2108,-2673,1350
510,18406095,1672,15,-290,1945,-2851,1351
511,18406105,1581,-70,-347,1588,-2980,1442
512,18406115,1545,-57,-400,1076,-3022,1520
513,18406125,1567,35,-395,723,-3079,1552
514,18406135,1659,29,-430,723,-3254,1645
515,18406145,1561,46,-459,816,-3600,1724
516,18406155,1494,-36,-502,977,-3991,1773
517,18406165,1374,-86,-590,1182,-4280,1760
518,18406175,1298,-141,-651,1366,-4373,1743
519,18406185,1232,-227,-735,1333,-4505,1793
520,18406182,1232,-227,-735,1333,-4505,1796
521,18406192,1111,-276,-793,1165,-4636,1902
522,18406202,1091,-261,-833,962,-4607,2039
523,18406212,988,-307,-835,758,-4737,2161
524,18406222,860,-374,-913,507,-4969,2330
525,18406232,456,-298,-1098,143,-5263,2479
526,18406242,293,-405,-1367,127,-5098,2556
527,18406252,108,-494,-1625,264,-4945,2444
528,18406262,-19,-484,-1823,426,-4967,2177
529,18406272,14,-542,-1907,830,-4692,1797
530,18406282,-21,-569,-1913,1125,-4377,1509
531,18406292,-38,-547,-1835,1190,-4020,1347
532,18406302,-13,-564,-1734,1187,-3670,1308
533,18406312,-45,-597,-1645,1152,-3388,1345
534,18406322,-135,-749,-1653,1093,-3196,1474
535,18406332,-316,-937,-1740,872,-3089,1594
536,18406342,-546,-981,-1911,445,-3167,1599
537,18406352,-714,-1027,-2108,153,-2855,1530
538,18406362,-817,-992,-2346,-78,-2559,1477
539,18406372,-847,-1020,-2455,-116,-2190,1245
540,18406382,-796,-964,-2464,-60,-1795,895
541,18406392,-760,-817,-2305,-104,-1465,629
542,18406402,-656,-705,-2219,-29,-1144,540
543,18406412,-606,-721,-2140,189,-951,556
544,18406422,-585,-698,-2125,363,-881,669
545,18406432,-576,-727,-2085,544,-848,512
546,18406429,-576,-728,-2085,545,-849,699
547,18406439,-528,-750,-2141,620,-774,659
548,18406449,-536,-780,-2106,663,-624,584
549,18406459,-526,-767,-2100,658,-559,514
550,18406469,-2209,-1255,-1743,645,-557,303
551,18406479,349,-386,-2358,-904,-646,-1714
552,18406489,-756,-698,-2072,41,-834,-78
553,18406499,-617,-712,-2131,545,-669,217
554,18406509,-556,-560,-2172,338,-424,9
555,18406519,-589,-606,-2078,626,-398,116
556,18406529,-569,-703,-1963,755,-404,147
557,18406539,-575,-709,-1954,631,-466,171
558,18406549,-553,-694,-2022,470,-519,142
559,18406559,-632,-676,-2085,396,-601,154
560,18406569,-644,-612,-2144,301,-677,94
561,18406579,-636,-560,-2200,284,-683,4
562,18406589,-626,-542,-2215,378,-638,-80
563,18406599,-624,-497,-2196,539,-556,-149
564,18406609,-564,-485,-2145,725,-456,-205
565,18406619,-503,-500,-2085,876,-390,-206
566,18406629,-460,-520,-2029,944,-357,-235
567,18406639,-413,-479,-1981,931,-351,-246
568,18406649,-375,-476,-1965,878,-389,-202
569,18406659,-442,-426,-1900,815,-459,-139
570,18406669,-809,-976,-2338,893,-594,85
571,18406679,-938,-866,-2417,145,-941,256
572,18406675,-938,-866,-2417,146,-941,456
573,18406685,-729,-1121,-2636,-487,-871,72
574,18406695,-853,-137,-2376,-1125,-301,-194
575,18406705,-743,48,-2739,-922,-161,-456
576,18406715,-318,-284,-2164,694,81,-885
577,18406725,-71,-563,-1880,1220,378,-623
578,18406735,-239,-520,-1943,886,426,-157
579,18406745,-371,-445,-2019,545,167,61
580,18406755,-305,-476,-2004,554,6,-161
581,18406765,-529,-90,-2324,385,-102,-203
582,18406775,-367,-197,-2082,387,341,-44
583,18406785,-334,-557,-1798,1262,271,34
584,18406795,-336,-349,-1942,840,183,-57
585,18406805,-362,-357,-1961,637,89,-68
586,18406815,-394,-407,-1943,751,80,-55
587,18406825,-379,-374,-1943,689,72,-45
588,18406835,-377,-405,-1922,717,65,-88
589,18406845,-394,-426,-1926,774,50,-79
590,18406855,-370,-423,-1902,764,40,-79
591,18406865,-357,-430,-1934,774,44,-93
592,18406875,-362,-435,-1926,767,60,-78
593,18406885,-342,-414,-1922,767,82,-72
594,18406895,-332,-422,-1931,781,98,-63
595,18406905,-358,-419,-1939,781,108,-50
596,18406915,-345,-403,-1935,772,118,-42
597,18406925,-314,-404,-1933,765,128,-256
598,18406922,-314,-404,-1933,766,128,-42
599,18406932,-324,-400,-1948,753,133,-35
600,18406942,-335,-393,-1951,744,127,-31
601,18406952,-312,-398,-1947,747,122,-40
602,18406962,-303,-405,-1951,764,121,-38
603,18406972,-314,-404,-1949,793,121,-58
604,18406982,-325,-409,-1944,797,118,-57
605,18406992,-284,-420,-1941,805,117,-66
606,18407002,-294,-446,-1940,812,120,-75
607,18407012,-306,-448,-1945,791,128,-67
608,18407022,-290,-439,-1938,751,139,-62
609,18407032,-261,-422,-1948,734,142,-67
610,18407042,-287,-412,-1960,733,137,-62
611,18407052,-316,-421,-1945,747,125,-82
612,18407062,-244,-431,-1957,797,93,-179
613,18407072,-254,-417,-1944,796,81,-181
614,18407082,-278,-426,-1957,793,56,-175
615,18407092,-256,-410,-1957,802,48,-198
616,18407102,-234,-441,-1953,813,27,-207
617,18407112,-244,-442,-1963,792,25,-190
618,18407122,-251,-461,-1959,797,11,-173
619,18407132,-211,-457,-1959,789,3,-160
620,18407142,-223,-449,-1963,780,-9,-142
621,18407152,-250,-449,-1963,767,-27,-116
622,18407162,-217,-443,-1959,761,-36,-96
623,18407172,-215,-447,-1957,753,-42,-256
624,18407169,-215,-448,-1957,754,-42,-76
625,18407179,-241,-459,-1952,751,-49,-72
626,18407189,-253,-449,-1951,750,-50,-70
627,18407199,-214,-455,-1947,743,-54,-64
628,18407209,-239,-457,-1953,740,-55,-65
629,18407219,-244,-458,-1939,739,-52,-71
630,18407229,-227,-451,-1942,738,-50,-73
631,18407239,-237,-441,-1959,732,-57,-67
632,18407249,-240,-448,-1935,741,-50,-81
633,18407259,-236,-434,-1945,735,-56,-73
634,18407269,-232,-447,-1946,743,-56,-87
635,18407279,-228,-461,-1936,742,-54,-90
636,18407289,-243,-446,-1961,735,-59,-87
637,18407299,-215,-462,-1949,742,-56,-94
638,18407309,-218,-447,-1957,746,-53,-98
639,18407319,-236,-465,-1950,744,-55,-98
640,18407329,-229,-460,-1945,736,-60,-85
641,18407339,-201,-473,-1942,741,-64,-73
642,18407349,-214,-471,-1952,727,-70,-62
643,18407359,-233,-472,-1940,721,-71,-60
644,18407369,-216,-464,-1950,718,-75,-50
645,18407379,-213,-479,-1947,715,-76,-45
646,18407389,-227,-461,-1943,717,-71,-47
647,18407399,-236,-465,-1948,719,-71,-50
648,18407409,-203,-460,-1951,721,-71,-52
649,18407419,-222,-463,-1949,717,-70,-256
