sequence,timestamp_ms,accel_x,accel_y,accel_z,gyro_x,gyro_y,gyro_z
20592,19138343,-2036,-43,-96,1369,-159,-177
20593,19138353,-2061,-7,-96,1377,-185,-207
20594,19138363,-2062,28,-91,1386,-208,-226
20595,19138373,-2107,23,-87,1401,-237,-238
20596,19138383,-2114,44,-72,1415,-275,-254
20597,19138393,-2096,52,-59,1400,-315,-266
20598,19138403,-2113,51,-67,1379,-349,-274
20599,19138413,-2139,48,-81,1345,-374,-284
20600,19138423,-2140,76,-97,1316,-397,-294
20601,19138433,-2107,103,-117,1288,-397,-312
20602,19138443,-2121,122,-118,1288,-396,-316
20603,19138453,-2117,132,-150,1291,-389,-316
20604,19138463,-2110,141,-138,1289,-381,-311
20605,19138473,-2109,143,-146,1295,-364,-313
20606,19138483,-2136,151,-109,1301,-339,-317
20607,19138493,-2092,148,-91,1328,-310,-314
20608,19138503,-2061,157,-61,1342,-294,-310
20609,19138513,-2072,154,-52,1339,-307,-299
20610,19138523,-2060,149,-27,1371,-318,-287
20611,19138533,-2020,139,-17,1388,-331,-280
20612,19138543,-2017,140,11,1424,-341,-275
20613,19138553,-2033,159,0,1450,-361,-279
20614,19138563,-2015,172,8,1457,-374,-281
20615,19138573,-1989,182,21,1474,-383,-272
20616,19138583,-2018,208,44,1472,-397,-259
20617,19138593,-2005,232,41,1436,-416,-256
20618,19138590,-2005,232,42,1436,-417,-236
20619,19138600,-1970,247,40,1418,-431,-207
20620,19138610,-1975,238,47,1403,-437,-173
20621,19138620,-1966,231,42,1362,-439,-137
20622,19138630,-1945,228,32,1304,-445,-106
20623,19138640,-1948,222,1,1262,-452,-69
20624,19138650,-1971,220,-43,1221,-442,-35
20625,19138660,-1987,226,-69,1196,-413,-12
20626,19138670,-1969,233,-64,1187,-373,13
20627,19138680,-1969,190,-63,1171,-334,52
20628,19138690,-1991,172,-84,1159,-307,76
20629,19138700,-1973,165,-93,1158,-292,90
20630,19138710,-1955,161,-89,1194,-276,109
20631,19138720,-1989,148,-79,1248,-255,122
20632,19138730,-2027,148,-77,1314,-243,131
20633,19138740,-2030,164,-48,1398,-239,137
20634,19138750,-2074,175,-13,1456,-229,141
20635,19138760,-2094,154,15,1505,-208,144
20636,19138770,-2086,157,38,1533,-199,154
20637,19138780,-2103,175,34,1535,-218,170
20638,19138790,-2127,170,40,1531,-230,180
20639,19138800,-2134,158,33,1541,-232,197
20640,19138810,-2119,138,24,1542,-231,202
20641,19138820,-2112,101,10,1568,-238,209
20642,19138830,-2126,82,-2,1612,-246,207
20643,19138840,-2105,56,-22,1644,-258,0
20644,19138836,-2105,56,-21,1644,-258,200
20645,19138846,-2073,54,-14,1681,-254,191
20646,19138856,-2106,24,-32,1723,-237,171
20647,19138866,-2109,35,-27,1753,-217,154
20648,19138876,-2091,33,-5,1771,-197,135
20649,19138886,-2095,31,16,1802,-169,118
20650,19138896,-2105,24,17,1811,-156,109
20651,19138906,-2101,32,20,1789,-154,107
20652,19138916,-2122,33,32,1782,-143,97
20653,19138926,-2149,45,44,1779,-130,90
20654,19138936,-2149,38,43,1765,-118,80
20655,19138946,-2134,50,46,1746,-122,81
20656,19138956,-2156,48,36,1739,-132,79
20657,19138966,-2196,18,1,1747,-138,77
20658,19138976,-2214,41,-17,1757,-124,61
20659,19138986,-2203,31,-18,1814,-111,44
20660,19138996,-2241,29,-9,1885,-95,22
20661,19139006,-2255,24,5,1927,-103,7
20662,19139016,-2231,27,2,1992,-114,-14
20663,19139026,-2227,-3,20,2056,-113,-37
20664,19139036,-2251,14,36,2117,-113,-65
20665,19139046,-2238,-1,39,2177,-123,-99
20666,19139056,-2195,3,40,2215,-135,-132
20667,19139066,-2236,9,50,2246,-139,-167
20668,19139076,-2231,20,43,2298,-151,-200
20669,19139086,-2236,33,20,2348,-164,-256
20670,19139083,-2236,33,21,2348,-165,-228
20671,19139093,-2240,42,24,2388,-168,-256
20672,19139103,-2246,36,9,2434,-160,-299
20673,19139113,-2200,54,11,2480,-140,-341
20674,19139123,-2155,77,29,2521,-117,-373
20675,19139133,-2178,117,45,2541,-111,-390
20676,19139143,-2170,159,24,2553,-112,-398
20677,19139153,-2131,172,28,2554,-101,-401
20678,19139163,-2153,182,-11,2571,-99,-392
20679,19139173,-2166,176,-52,2597,-82,-378
20680,19139183,-2189,222,-78,2619,-51,-363
20681,19139193,-2196,212,-96,2665,-15,-350
20682,19139203,-2197,211,-113,2707,30,-344
20683,19139213,-2186,229,-88,2771,78,-333
20684,19139223,-2144,236,-81,2846,123,-328
20685,19139233,-2120,230,-2,2925,163,-327
20686,19139243,-2117,266,32,2995,188,-321
20687,19139253,-2084,295,96,3036,194,-303
20688,19139263,-2053,301,108,3055,185,-273
20689,19139273,-2060,310,126,3049,189,-232
20690,19139283,-2057,295,134,3018,191,-195
20691,19139293,-1988,267,117,2980,186,-157
20692,19139303,-1998,252,94,2929,182,-126
20693,19139313,-2011,264,43,2910,182,-94
20694,19139323,-2000,274,32,2922,199,-64
20695,19139333,-1990,296,49,2955,229,-256
20696,19139330,-1990,296,50,2955,228,-37
20697,19139340,-1999,313,88,2991,254,-9
20698,19139350,-1992,311,110,3012,263,33
20699,19139360,-1973,301,146,3019,263,81
20700,19139370,-1999,270,187,3000,268,130
20701,19139380,-2031,229,152,2961,262,168
20702,19139390,-2027,304,93,2921,215,190
20703,19139400,-1935,162,20,3023,161,217
20704,19139410,-2021,148,-35,3075,121,244
20705,19139420,-1970,78,-77,3196,99,239
20706,19139430,-1967,21,-88,3328,83,262
20707,19139440,-1958,1,-83,3388,87,222
20708,19139450,-1989,-9,-88,3434,114,185
20709,19139460,-1945,-31,-30,3485,146,157
20710,19139470,-1913,-38,2,3480,147,139
20711,19139480,-1954,-17,-8,3437,123,129
20712,19139490,-1982,-1,-12,3397,112,121
20713,19139500,-1994,13,-11,3353,119,114
20714,19139510,-2031,21,-26,3289,123,110
20715,19139520,-2058,37,-27,3220,129,106
20716,19139530,-2070,68,-49,3143,134,119
20717,19139540,-2075,72,-67,3081,144,125
20718,19139550,-2093,75,-82,3038,161,132
20719,19139560,-2086,88,-82,2994,185,144
20720,19139570,-2027,96,-94,2962,185,166
20721,19139580,-2037,90,-115,2946,181,0
20722,19139576,-2037,90,-114,2947,180,194
20723,19139586,-2028,75,-112,2947,182,231
20724,19139596,-2000,97,-124,2948,180,262
20725,19139606,-1976,81,-107,2962,177,298
20726,19139616,-1985,63,-93,2944,167,348
20727,19139626,-1983,42,-101,2908,166,401
20728,19139636,-1956,-1,-121,2836,173,455
20729,19139646,-1986,-38,-135,2744,169,518
20730,19139656,-1980,-96,-165,2646,182,568
20731,19139666,-1953,-144,-178,2562,199,597
20732,19139676,-1930,-179,-188,2486,215,626
20733,19139686,-1955,-225,-224,2410,231,656
20734,19139696,-1940,-256,-229,2383,251,665
20735,19139706,-1915,-279,-248,2379,260,677
20736,19139716,-1941,-302,-239,2382,248,686
20737,19139726,-1943,-347,-253,2403,230,688
20738,19139736,-1961,-393,-272,2413,207,683
20739,19139746,-1955,-429,-264,2409,190,672
20740,19139756,-1991,-450,-240,2407,196,637
20741,19139766,-2014,-455,-215,2387,220,598
20742,19139776,-1987,-446,-197,2347,227,561
20743,19139786,-2013,-439,-189,2297,216,523
20744,19139796,-2074,-460,-201,2247,191,493
20745,19139806,-2065,-464,-183,2227,168,455
20746,19139816,-2070,-473,-172,2216,141,398
20747,19139826,-2087,-504,-178,2193,110,256
20748,19139823,-2087,-504,-178,2193,109,332
20749,19139833,-2054,-514,-169,2167,69,257
20750,19139843,-2046,-500,-201,2141,23,192
20751,19139853,-2032,-487,-208,2120,-20,123
20752,19139863,-2036,-489,-229,2128,-70,48
20753,19139873,-2008,-444,-245,2162,-125,-13
20754,19139883,-1986,-407,-252,2208,-172,-77
20755,19139893,-2001,-387,-229,2275,-227,-127
20756,19139903,-1974,-364,-225,2337,-279,-168
20757,19139913,-1937,-358,-177,2370,-325,-193
20758,19139923,-1909,-358,-167,2347,-373,-210
20759,19139933,-1911,-324,-198,2280,-424,-231
20760,19139943,-1893,-299,-242,2209,-461,-237
20761,19139953,-1871,-285,-256,2153,-474,-236
20762,19139963,-1883,-284,-254,2101,-466,-232
20763,19139973,-1867,-267,-252,2046,-452,-230
20764,19139983,-1811,-247,-248,1979,-451,-216
20765,19139993,-1807,-235,-242,1897,-445,-188
20766,19140003,-1796,-239,-247,1817,-444,-159
20767,19140013,-1750,-237,-249,1720,-450,-130
20768,19140023,-1719,-243,-298,1632,-466,-84
20769,19140033,-1756,-259,-330,1556,-473,-29
20770,19140043,-1772,-279,-345,1492,-471,25
20771,19140053,-1790,-282,-355,1414,-455,74
20772,19140063,-1807,-302,-368,1348,-434,110
20773,19140073,-1861,-311,-380,1272,-403,0
20774,19140070,-1861,-312,-380,1272,-404,133
20775,19140080,-1875,-312,-379,1195,-385,159
20776,19140090,-1884,-317,-360,1134,-395,189
20777,19140100,-1951,-325,-362,1081,-383,206
20778,19140110,-1923,-337,-340,1036,-377,207
20779,19140120,-1919,-346,-333,998,-398,217
20780,19140130,-1923,-344,-370,963,-425,219
20781,19140140,-1937,-389,-360,942,-440,226
20782,19140150,-1927,-388,-391,916,-466,224
20783,19140160,-1921,-384,-402,888,-495,214
20784,19140170,-1946,-408,-406,872,-500,212
20785,19140180,-1927,-419,-400,852,-497,201
20786,19140190,-1903,-412,-406,807,-499,185
20787,19140200,-1886,-425,-405,760,-509,181
20788,19140210,-1922,-423,-415,710,-514,169
20789,19140220,-1914,-393,-411,684,-508,157
20790,19140230,-1924,-365,-400,670,-502,152
20791,19140240,-2026,-329,-421,678,-520,147
20792,19140250,-2107,-266,-389,739,-534,138
20793,19140260,-2201,-183,-382,801,-534,142
20794,19140270,-2345,-102,-397,855,-548,153
20795,19140280,-2510,-51,-386,898,-580,181
20796,19140290,-2640,-19,-383,954,-585,219
20797,19140300,-2774,-5,-395,982,-575,255
20798,19140310,-2851,-66,-364,989,-559,277
20799,19140320,-2830,-107,-346,968,-513,0
20800,19140317,-2829,-108,-345,969,-514,240
20801,19140327,-2645,-128,-275,952,-460,138
20802,19140337,-2432,-117,-225,969,-398,-2
20803,19140347,-2259,-35,-159,973,-361,-125
20804,19140357,-2027,54,-117,1041,-353,-241
20805,19140367,-1858,144,-82,1122,-366,-298
20806,19140377,-1799,206,-76,1219,-427,-317
20807,19140387,-1737,268,-83,1338,-501,-338
20808,19140397,-1705,316,-101,1462,-576,-319
20809,19140407,-1759,347,-128,1589,-626,-290
20810,19140417,-1844,353,-155,1697,-652,-269
20811,19140427,-1897,333,-156,1767,-638,-247
20812,19140437,-1960,335,-143,1796,-589,-229
20813,19140447,-2063,321,-99,1781,-518,-226
20814,19140457,-2110,305,-56,1722,-448,-237
20815,19140467,-2129,345,-19,1640,-379,-249
20816,19140477,-2174,421,33,1552,-311,-263
20817,19140487,-2168,428,92,1485,-227,-304
20818,19140497,-2145,438,166,1438,-156,-310
20819,19140507,-2093,448,231,1379,-134,-307
20820,19140517,-2065,426,262,1317,-150,-306
20821,19140527,-2059,402,273,1279,-185,-291
20822,19140537,-2002,388,267,1260,-237,-276
20823,19140547,-2006,349,232,1304,-284,-267
20824,19140557,-2007,309,209,1290,-350,-263
20825,19140567,-1994,247,184,1359,-383,-512
20826,19140563,-1994,247,185,1359,-384,-261
20827,19140573,-1988,230,178,1406,-407,-264
20828,19140583,-1991,233,163,1433,-425,-276
20829,19140593,-2019,173,198,1461,-443,-279
20830,19140603,-2018,161,146,1472,-443,-228
20831,19140613,-2032,156,126,1452,-496,-294
20832,19140623,-2083,160,106,1489,-481,-282
20833,19140633,-2060,206,90,1526,-485,-322
20834,19140643,-2039,207,91,1568,-466,-327
20835,19140653,-2055,195,113,1569,-454,-321
20836,19140663,-2032,214,126,1590,-423,-331
20837,19140673,-1985,235,139,1564,-395,-307
20838,19140683,-1962,241,160,1545,-370,-288
20839,19140693,-1970,249,155,1524,-358,-247
20840,19140703,-1966,267,153,1508,-352,-199
20841,19140713,-1958,296,120,1496,-337,-147
20842,19140723,-1997,284,124,1498,-323,-94
20843,19140733,-2027,266,128,1500,-305,-33
20844,19140743,-2018,249,126,1488,-279,30
20845,19140753,-2036,208,125,1470,-252,85
20846,19140763,-2097,164,115,1449,-233,131
20847,19140773,-2067,116,137,1412,-205,173
20848,19140783,-2064,89,130,1363,-164,196
20849,19140793,-2102,32,153,1329,-139,211
20850,19140803,-2112,-8,155,1275,-124,218
20851,19140813,-2092,-32,163,1249,-115,0
20852,19140810,-2092,-32,163,1249,-115,206
20853,19140820,-2081,-19,163,1248,-115,190
20854,19140830,-2091,-51,187,1264,-126,178
20855,19140840,-2078,-23,165,1291,-148,167
20856,19140850,-2047,-34,163,1362,-188,143
20857,19140860,-2102,-44,139,1396,-226,141
20858,19140870,-2089,-32,128,1450,-270,114
20859,19140880,-2080,-31,123,1499,-277,103
20860,19140890,-2093,-35,120,1509,-282,98
20861,19140900,-2099,-28,101,1482,-282,92
20862,19140910,-2082,-6,75,1440,-268,99
20863,19140920,-2061,14,54,1402,-238,108
20864,19140930,-2066,-7,32,1375,-208,118
20865,19140940,-2071,-7,40,1358,-184,134
20866,19140950,-2052,-1,12,1356,-159,150
20867,19140960,-2080,6,-7,1361,-130,163
20868,19140970,-2108,-2,-10,1371,-95,184
20869,19140980,-2124,-25,-9,1372,-54,199
20870,19140990,-2125,-41,-2,1377,-27,212
20871,19141000,-2142,-57,-10,1393,10,215
20872,19141010,-2146,-75,9,1403,50,211
20873,19141020,-2110,-104,21,1425,72,217
20874,19141030,-2123,-140,33,1440,92,205
20875,19141040,-2154,-125,46,1467,107,184
20876,19141050,-2136,-131,93,1499,118,160
20877,19141060,-2123,-113,89,1529,121,0
20878,19141056,-2123,-114,89,1529,120,138
20879,19141066,-2136,-118,119,1555,114,120
20880,19141076,-2126,-123,126,1572,104,102
20881,19141086,-2104,-109,133,1578,88,90
20882,19141096,-2101,-123,128,1579,74,76
20883,19141106,-2118,-138,94,1572,67,65
20884,19141116,-2101,-137,92,1567,63,53
20885,19141126,-2078,-137,66,1570,67,35
20886,19141136,-2091,-142,82,1574,75,22
20887,19141146,-2084,-161,63,1575,84,8
20888,19141156,-2057,-129,66,1571,91,-7
20889,19141166,-2091,-107,39,1576,102,-19
20890,19141176,-2147,-87,43,1583,123,-26
20891,19141186,-2165,-67,65,1578,146,-28
20892,19141196,-2198,-42,67,1566,164,-21
20893,19141206,-2266,-35,86,1559,181,-9
20894,19141216,-2287,-29,103,1538,200,-2
20895,19141226,-2264,6,113,1507,207,5
20896,19141236,-2287,-9,129,1484,203,15
20897,19141246,-2282,-18,159,1485,194,22
20898,19141256,-2227,-36,186,1499,172,7
20899,19141266,-2158,-78,204,1507,130,-1
20900,19141276,-2156,-106,198,1503,82,-16
20901,19141286,-2118,-158,218,1510,31,-34
20902,19141296,-2028,-177,223,1500,-9,-76
20903,19141306,-1961,-257,220,1470,-68,-256
20904,19141303,-1961,-257,221,1470,-68,-116
20905,19141313,-1911,-288,184,1414,-136,-178
20906,19141323,-1857,-318,159,1369,-212,-229
20907,19141333,-1808,-320,141,1337,-254,-297
20908,19141343,-1783,-303,104,1304,-288,-380
20909,19141353,-1795,-314,117,1273,-335,-428
20910,19141363,-1801,-320,85,1220,-358,-444
20911,19141373,-1864,-231,27,1128,-456,-547
20912,19141383,-1941,-203,-18,1056,-462,-597
20913,19141393,-2014,-174,-57,929,-445,-614
20914,19141403,-2021,-146,-79,800,-426,-654
20915,19141413,-2116,-105,-128,636,-410,-668
20916,19141423,-2167,-39,-170,510,-376,-678
20917,19141433,-2163,14,-205,416,-336,-689
20918,19141443,-2173,63,-268,362,-278,-690
20919,19141453,-2188,105,-267,361,-222,-688
20920,19141463,-2130,148,-275,403,-178,-679
20921,19141473,-2064,162,-285,478,-153,-653
20922,19141483,-2047,154,-274,591,-155,-615
20923,19141493,-2004,168,-266,729,-166,-568
20924,19141503,-1914,158,-236,879,-183,-521
20925,19141513,-1900,132,-205,1031,-209,-468
20926,19141523,-1899,99,-182,1149,-232,-416
20927,19141533,-1870,68,-154,1198,-236,-368
20928,19141543,-1856,51,-150,1172,-236,-317
20929,19141553,-1883,36,-147,1100,-225,-512
20930,19141550,-1883,36,-147,1101,-226,-264
20931,19141560,-1876,18,-162,1007,-188,-221
20932,19141570,-1858,32,-176,912,-138,-183
20933,19141580,-1867,31,-183,831,-89,-146
20934,19141590,-1914,26,-183,784,-56,-102
20935,19141600,-1904,64,-185,753,-27,-75
20936,19141610,-1908,46,-176,753,1,-33
20937,19141620,-1952,51,-162,770,15,9
20938,19141630,-1971,54,-179,789,24,49
20939,19141640,-1973,44,-174,812,26,88
20940,19141650,-2013,38,-168,845,30,126
20941,19141660,-2038,19,-168,877,39,155
20942,19141670,-2047,15,-155,904,49,178
20943,19141680,-2043,-11,-157,924,57,190
20944,19141690,-2081,-40,-120,945,59,195
20945,19141700,-2095,-37,-114,966,60,194
20946,19141710,-2082,-61,-97,989,57,181
20947,19141720,-2117,-77,-88,1014,45,163
20948,19141730,-2158,-112,-84,1018,29,143
20949,19141740,-2150,-109,-77,1018,14,114
20950,19141750,-2144,-123,-81,1022,5,75
20951,19141760,-2174,-158,-61,1027,-19,37
20952,19141770,-2189,-134,-72,1014,-46,-9
20953,19141780,-2161,-140,-89,1022,-76,-55
20954,19141790,-2160,-144,-80,1046,-106,-106
20955,19141800,-2168,-130,-86,1076,-134,-256
20956,19141796,-2168,-131,-85,1077,-134,-156
20957,19141806,-2137,-117,-96,1113,-165,-216
20958,19141816,-2108,-86,-106,1161,-200,-255
20959,19141826,-2114,-71,-107,1199,-235,-297
20960,19141836,-2108,-70,-95,1232,-262,-325
20961,19141846,-2067,-51,-95,1258,-291,-344
20962,19141856,-2065,-27,-113,1257,-315,-364
20963,19141866,-2085,-24,-130,1250,-342,-368
20964,19141876,-2078,-13,-141,1237,-351,-368
20965,19141886,-2050,-2,-146,1212,-349,-373
20966,19141896,-2064,1,-174,1175,-354,-362
20967,19141906,-2065,-3,-190,1114,-351,-350
20968,19141916,-2036,-3,-199,1058,-342,-330
20969,19141926,-2032,-3,-235,1000,-322,-320
20970,19141936,-2039,-9,-259,936,-296,-302
20971,19141946,-2020,6,-277,886,-271,-272
20972,19141956,-1984,8,-300,842,-236,-254
20973,19141966,-1996,4,-303,815,-202,-233
20974,19141976,-1992,1,-319,792,-179,-214
20975,19141986,-1955,30,-351,781,-155,-185
20976,19141996,-1946,14,-343,790,-130,-153
20977,19142006,-1964,12,-355,812,-109,-123
20978,19142016,-1926,29,-373,841,-96,-100
20979,19142026,-1909,29,-380,887,-77,-64
20980,19142036,-1926,30,-386,936,-59,-25
20981,19142046,-1944,21,-374,991,-43,0
20982,19142043,-1944,21,-374,992,-43,10
20983,19142053,-1926,15,-374,1056,-29,52
20984,19142063,-1945,17,-347,1126,-14,86
20985,19142073,-1964,0,-331,1191,-8,116
20986,19142083,-1949,-3,-325,1248,-10,146
20987,19142093,-1950,-20,-311,1292,-3,177
20988,19142103,-1976,-34,-278,1319,9,201
20989,19142113,-2005,-52,-256,1322,26,224
20990,19142123,-1983,-64,-244,1302,39,246
20991,19142133,-1988,-73,-237,1281,46,260
20992,19142143,-2034,-94,-237,1270,48,272
20993,19142153,-2019,-91,-228,1270,46,283
20994,19142163,-2009,-105,-227,1284,43,287
20995,19142173,-2046,-113,-211,1302,42,289
20996,19142183,-2052,-122,-185,1316,44,289
20997,19142193,-2026,-131,-186,1317,41,288
20998,19142203,-2027,-140,-166,1305,37,286
20999,19142213,-2062,-139,-155,1289,30,288
21000,19142223,-2042,-139,-162,1275,29,285
21001,19142233,-2028,-146,-160,1264,26,283
21002,19142243,-2061,-155,-156,1257,19,283
21003,19142253,-2054,-138,-143,1246,13,280
21004,19142263,-2021,-156,-155,1235,8,279
21005,19142273,-2030,-163,-142,1223,0,273
21006,19142283,-2045,-165,-138,1219,-7,265
21007,19142293,-2017,-170,-154,1218,-18,256
21008,19142290,-2017,-170,-154,1218,-18,258
21009,19142300,-2007,-175,-137,1224,-30,252
21010,19142310,-2026,-173,-144,1226,-34,240
21011,19142320,-2041,-179,-137,1225,-38,231
21012,19142330,-1993,-191,-135,1213,-45,219
21013,19142340,-2024,-176,-139,1198,-53,207
21014,19142350,-2052,-178,-143,1187,-60,194
21015,19142360,-2031,-180,-155,1183,-66,181
21016,19142370,-2064,-183,-142,1183,-68,168
21017,19142380,-2079,-209,-144,1180,-77,154
21018,19142390,-2088,-187,-129,1165,-90,138
21019,19142400,-2055,-196,-120,1146,-100,120
21020,19142410,-2062,-210,-130,1129,-116,105
21021,19142420,-2093,-202,-164,1115,-130,81
21022,19142430,-2080,-209,-154,1110,-147,59
21023,19142440,-2080,-205,-162,1114,-158,38
21024,19142450,-2099,-194,-165,1109,-165,11
21025,19142460,-2094,-201,-154,1091,-177,-14
21026,19142470,-2061,-184,-169,1063,-186,-38
21027,19142480,-2065,-184,-179,1039,-196,-58
21028,19142490,-2087,-203,-177,1017,-202,-74
21029,19142500,-2066,-192,-196,995,-206,-97
21030,19142510,-2052,-191,-221,983,-207,-125
21031,19142520,-2041,-188,-219,977,-211,-148
21032,19142530,-2058,-172,-223,962,-211,-171
21033,19142540,-1998,-158,-208,951,-210,-256
21034,19142536,-1998,-158,-208,952,-211,-188
21035,19142546,-2006,-148,-210,938,-207,-205
21036,19142556,-2009,-136,-210,917,-208,-215
21037,19142566,-1988,-119,-201,896,-214,-219
21038,19142576,-1975,-100,-218,874,-217,-216
21039,19142586,-1998,-92,-215,850,-222,-208
21040,19142596,-2021,-87,-231,832,-224,-198
21041,19142606,-1992,-75,-254,821,-225,-185
21042,19142616,-1990,-90,-260,819,-222,-179
21043,19142626,-2022,-88,-264,823,-212,-171
21044,19142636,-2009,-95,-259,825,-204,-164
21045,19142646,-1988,-95,-258,827,-197,-164
21046,19142656,-2010,-108,-234,830,-188,-165
21047,19142666,-2020,-131,-232,827,-175,-162
21048,19142676,-1985,-122,-234,805,-158,-170
21049,19142686,-1991,-120,-247,781,-144,-181
21050,19142696,-2007,-120,-239,789,-140,-184
21051,19142706,-1993,-118,-230,786,-139,-187
21052,19142716,-1972,-106,-237,770,-146,-182
21053,19142726,-1983,-99,-215,768,-148,-186
21054,19142736,-1982,-81,-189,785,-144,-179
21055,19142746,-1940,-71,-166,781,-152,-169
21056,19142756,-1954,-78,-168,776,-177,-158
21057,19142766,-1967,-91,-174,768,-205,-137
21058,19142776,-1945,-75,-167,754,-224,-122
21059,19142786,-1906,-81,-165,761,-235,-256
21060,19142783,-1906,-81,-164,761,-235,-112
21061,19142793,-1940,-85,-166,769,-252,-91
21062,19142803,-1971,-91,-176,767,-271,-78
21063,19142813,-1944,-82,-184,767,-267,-77
21064,19142823,-1968,-84,-172,784,-252,-70
21065,19142833,-2020,-117,-181,787,-249,-76
21066,19142843,-1987,-129,-182,776,-248,-74
21067,19142853,-1984,-112,-195,777,-236,-76
21068,19142863,-2008,-115,-188,780,-247,-78
21069,19142873,-2038,-95,-215,768,-269,-76
21070,19142883,-2027,-96,-206,787,-285,-76
21071,19142893,-2037,-83,-191,834,-279,-86
21072,19142903,-2100,-62,-179,875,-288,-89
21073,19142913,-2114,-67,-196,910,-296,-85
21074,19142923,-2120,-61,-192,913,-293,-93
21075,19142933,-2174,-106,-197,912,-286,-100
21076,19142943,-2191,-124,-200,898,-244,-131
21077,19142953,-2147,-136,-187,855,-228,-167
21078,19142963,-2137,-142,-185,825,-227,-184
21079,19142973,-2169,-110,-236,805,-226,-198
21080,19142983,-2110,-153,-186,818,-215,-208
21081,19142993,-2110,-119,-172,826,-185,-244
21082,19143003,-2091,-123,-180,836,-243,-275
21083,19143013,-2092,-104,-220,831,-289,-288
21084,19143023,-2056,-112,-282,865,-311,-323
21085,19143033,-2106,-109,-334,940,-329,-512
21086,19143030,-2106,-109,-334,941,-329,-357
21087,19143040,-2135,-189,-326,986,-326,-396
21088,19143050,-2169,-13,-393,868,-255,-540
21089,19143060,-2086,-77,-364,885,-240,-572
21090,19143070,-2159,-70,-324,1109,-175,-503
21091,19143080,-2128,-72,-279,1140,-180,-501
21092,19143090,-2111,-15,-285,1038,-227,-491
21093,19143100,-2095,-40,-287,996,-242,-477
21094,19143110,-2090,-49,-320,1042,-253,-433
21095,19143120,-2071,-68,-385,1030,-305,-436
21096,19143130,-2045,-57,-432,1030,-295,-411
21097,19143140,-2049,-88,-430,1106,-256,-407
21098,19143150,-2047,-124,-474,1154,-270,-403
21099,19143160,-2011,-92,-510,1182,-206,-460
21100,19143170,-1987,-195,-429,1298,-119,-462
21101,19143180,-2011,-151,-469,1188,-94,-472
21102,19143190,-1968,-113,-506,1036,-150,-465
21103,19143200,-1933,-132,-489,993,-96,-426
21104,19143210,-1921,-137,-431,1007,-23,-404
21105,19143220,-1882,-73,-425,941,10,-429
21106,19143230,-1850,-24,-429,899,-30,-386
21107,19143240,-1865,0,-476,893,-44,-329
21108,19143250,-1879,-23,-513,933,-5,-293
21109,19143260,-1886,-67,-494,983,41,-235
21110,19143270,-1858,-123,-462,992,99,-190
21111,19143280,-1919,-140,-470,878,135,-256
21112,19143277,-1919,-140,-470,879,135,-177
21113,19143287,-1935,-175,-471,822,150,-142
21114,19143297,-1901,-200,-453,813,206,-91
21115,19143307,-1893,-247,-404,893,238,-41
21116,19143317,-1900,-256,-385,920,211,-8
21117,19143327,-1876,-253,-379,976,192,12
21118,19143337,-1830,-258,-362,1043,169,28
21119,19143347,-1859,-254,-325,1112,148,46
21120,19143357,-1875,-283,-280,1163,115,87
21121,19143367,-1852,-290,-294,1148,68,115
21122,19143377,-1861,-313,-308,1126,40,137
21123,19143387,-1885,-307,-325,1108,11,163
21124,19143397,-1878,-322,-366,1090,-20,180
21125,19143407,-1870,-343,-387,1110,-30,190
21126,19143417,-1898,-357,-358,1139,-26,188
21127,19143427,-1908,-356,-343,1169,-7,171
21128,19143437,-1900,-348,-314,1199,6,179
21129,19143447,-1913,-342,-313,1197,-15,181
21130,19143457,-1956,-341,-302,1205,-40,187
21131,19143467,-1940,-332,-287,1232,-56,188
21132,19143477,-1926,-336,-264,1266,-87,182
21133,19143487,-1961,-332,-278,1269,-123,171
21134,19143497,-1971,-337,-268,1284,-136,152
21135,19143507,-1932,-335,-250,1314,-153,137
21136,19143517,-1940,-330,-251,1311,-173,115
21137,19143527,-1962,-348,-193,1322,-198,0
21138,19143523,-1962,-349,-193,1322,-199,102
21139,19143533,-1915,-323,-192,1306,-241,93
21140,19143543,-1902,-319,-205,1247,-297,74
21141,19143553,-1950,-335,-205,1209,-348,74
21142,19143563,-1954,-326,-224,1138,-396,67
21143,19143573,-1927,-299,-265,1097,-423,52
21144,19143583,-1937,-294,-274,1076,-436,40
21145,19143593,-1958,-304,-281,1045,-455,31
21146,19143603,-1909,-276,-273,1003,-463,24
21147,19143613,-1889,-271,-283,948,-472,26
21148,19143623,-1947,-273,-295,874,-506,40
21149,19143633,-1957,-268,-317,823,-537,50
21150,19143643,-1960,-226,-353,790,-544,55
21151,19143653,-2035,-228,-337,776,-556,68
21152,19143663,-2118,-227,-314,733,-569,100
21153,19143673,-2177,-249,-346,705,-560,118
21154,19143683,-2197,-269,-328,601,-607,106
21155,19143693,-2326,-163,-348,411,-556,44
21156,19143703,-2333,-164,-312,397,-563,16
21157,19143713,-2302,-230,-337,454,-511,108
21158,19143723,-2302,-104,-367,144,-499,72
21159,19143733,-2292,-183,-471,20,-464,-1
21160,19143743,-2228,-92,-465,-127,-463,39
21161,19143753,-2161,-133,-507,-52,-405,-27
21162,19143763,-2138,-67,-532,13,-451,-52
21163,19143773,-2051,-122,-534,175,-407,-256
21164,19143770,-2051,-123,-534,175,-407,-137
21165,19143780,-2045,-123,-546,324,-423,-126
21166,19143790,-1999,-108,-532,487,-472,-198
21167,19143800,-1998,-93,-479,772,-426,-210
21168,19143810,-1957,-41,-417,991,-416,-229
21169,19143820,-1954,6,-355,1175,-411,-242
21170,19143830,-1947,42,-296,1375,-402,-200
21171,19143840,-1954,55,-244,1445,-361,-164
21172,19143850,-1939,76,-190,1456,-342,-102
21173,19143860,-1947,117,-148,1520,-318,-82
21174,19143870,-1966,165,-59,1532,-297,-24
21175,19143880,-1962,149,-59,1534,-308,73
21176,19143890,-1963,144,-60,1578,-364,184
21177,19143900,-1999,128,-86,1530,-382,235
21178,19143910,-2067,160,-123,1430,-385,279
21179,19143920,-2036,165,-139,1458,-342,318
21180,19143930,-2054,170,-102,1593,-238,347
21181,19143940,-2070,98,-13,1724,-132,381
21182,19143950,-2014,42,78,1811,-48,400
21183,19143960,-1979,48,130,1690,-38,394
21184,19143970,-1995,46,164,1582,-25,389
21185,19143980,-1970,33,196,1520,-11,406
21186,19143990,-1929,2,199,1461,-7,424
21187,19144000,-1927,-11,190,1404,-19,441
21188,19144010,-1976,-4,157,1295,-48,428
21189,19144020,-1982,10,137,1237,-68,256
21190,19144017,-1982,10,137,1237,-68,416
21191,19144027,-1994,7,151,1220,-65,408
21192,19144037,-2068,-33,161,1194,-77,403
21193,19144047,-2091,-30,130,1120,-99,398
21194,19144057,-2094,-17,121,1044,-115,377
21195,19144067,-2120,-25,111,991,-110,371
21196,19144077,-2187,-53,82,941,-109,358
21197,19144087,-2184,-43,62,899,-107,334
21198,19144097,-2197,-54,70,891,-86,302
21199,19144107,-2244,-45,92,915,-55,258
21200,19144117,-2259,-28,94,932,-38,215
21201,19144127,-2244,-16,84,957,-26,173
21202,19144137,-2261,-13,92,986,-18,127
21203,19144147,-2260,-25,135,1026,5,63
21204,19144157,-2222,1,178,1078,12,0
21205,19144167,-2181,26,220,1132,-1,-55
21206,19144177,-2173,37,271,1194,-34,-95
21207,19144187,-2177,41,283,1228,-84,-125
21208,19144197,-2108,48,305,1254,-147,-152
21209,19144207,-2106,47,289,1266,-207,-179
21210,19144217,-2131,26,266,1266,-281,-191
21211,19144227,-2124,21,230,1258,-332,-215
21212,19144237,-2114,21,210,1249,-368,-241
21213,19144247,-2129,-8,178,1238,-381,-266
21214,19144257,-2144,-9,153,1182,-394,-298
21215,19144267,-2116,22,129,1145,-390,-512
21216,19144263,-2116,21,130,1145,-390,-360
21217,19144273,-2115,36,117,1139,-369,-388
21218,19144283,-2142,44,95,1091,-349,-421
21219,19144293,-2132,71,88,1057,-339,-446
21220,19144303,-2108,90,59,1035,-333,-458
21221,19144313,-2138,100,20,1015,-334,-467
21222,19144323,-2162,130,-5,993,-324,-477
21223,19144333,-2150,136,-31,1011,-308,-474
21224,19144343,-2169,163,-76,1032,-296,-470
21225,19144353,-2217,181,-87,1074,-277,-469
21226,19144363,-2231,199,-101,1120,-252,-458
21227,19144373,-2248,218,-129,1150,-225,-441
21228,19144383,-2272,231,-116,1186,-193,-427
21229,19144393,-2299,218,-104,1244,-158,-407
21230,19144403,-2291,233,-117,1276,-129,-386
21231,19144413,-2304,228,-101,1296,-109,-369
21232,19144423,-2334,217,-86,1324,-75,-354
21233,19144433,-2317,174,-63,1377,-42,-328
21234,19144443,-2288,188,-46,1362,-29,-323
21235,19144453,-2303,167,-34,1337,-35,-316
21236,19144463,-2274,128,-53,1314,-40,-302
21237,19144473,-2198,94,-11,1301,-59,-285
21238,19144483,-2118,106,3,1263,-49,-310
21239,19144493,-2031,51,21,1210,-88,-301
21240,19144503,-1948,-19,-32,1074,-161,-274
21241,19144513,-1863,-48,-133,890,-226,-256
21242,19144510,-1863,-48,-133,891,-227,-222
21243,19144520,-1861,-99,-256,698,-309,-179
21244,19144530,-1826,-99,-370,557,-323,-143
21245,19144540,-1749,-118,-454,469,-262,-159
21246,19144550,-1704,-118,-489,426,-171,-190
21247,19144560,-1636,-88,-486,414,-99,-215
21248,19144570,-1539,-52,-475,468,-40,-225
21249,19144580,-1484,6,-465,518,-10,-222
21250,19144590,-1532,28,-451,624,1,-173
21251,19144600,-1549,57,-467,740,-17,-101
21252,19144610,-1615,113,-500,834,-61,-46
21253,19144620,-1722,111,-530,954,-93,53
21254,19144630,-1859,123,-600,1008,-126,153
21255,19144640,-2001,77,-619,1148,-70,262
21256,19144650,-2090,37,-609,1287,-15,377
21257,19144660,-2229,-98,-616,1405,32,462
21258,19144670,-2284,-202,-612,1410,36,511
21259,19144680,-2239,-267,-585,1443,109,483
21260,19144690,-2199,-363,-565,1529,154,491
21261,19144700,-2178,-376,-611,1516,88,516
21262,19144710,-2132,-466,-637,1759,-86,500
21263,19144720,-2044,-568,-552,2219,-15,414
21264,19144730,-2039,-599,-424,2430,134,312
21265,19144740,-1975,-551,-284,2464,264,142
21266,19144750,-1906,-496,-184,2363,328,64
21267,19144760,-1900,-434,-140,2171,362,0
21268,19144757,-1900,-434,-140,2172,362,2
21269,19144767,-1918,-376,-95,1993,405,-24
21270,19144777,-1866,-281,-59,1818,447,-71
21271,19144787,-1853,-232,-32,1680,455,-63
21272,19144797,-1897,-162,10,1591,429,-59
21273,19144807,-1885,-159,64,1542,393,-24
21274,19144817,-1868,-158,89,1472,353,12
21275,19144827,-1875,-182,88,1406,277,32
21276,19144837,-1934,-178,51,1325,188,52
21277,19144847,-1922,-177,17,1267,85,63
21278,19144857,-1930,-162,-25,1246,17,58
21279,19144867,-1966,-228,-60,1248,-50,83
21280,19144877,-1964,-258,-70,1249,-104,90
21281,19144887,-1931,-290,-81,1225,-159,93
21282,19144897,-1926,-326,-87,1192,-221,91
21283,19144907,-1963,-379,-109,1129,-279,91
21284,19144917,-1940,-426,-183,1034,-341,88
21285,19144927,-1926,-430,-259,937,-373,66
21286,19144937,-1958,-479,-279,883,-386,55
21287,19144947,-1942,-473,-318,849,-385,29
21288,19144957,-1941,-460,-355,831,-405,2
21289,19144967,-1950,-460,-398,849,-448,-19
21290,19144977,-2000,-448,-447,884,-475,-46
21291,19144987,-2001,-464,-437,964,-460,-74
21292,19144997,-1993,-479,-410,1070,-430,-105
21293,19145007,-2018,-481,-385,1082,-409,-256
21294,19145003,-2018,-482,-385,1083,-410,-152
21295,19145013,-2012,-435,-340,1072,-384,-212
21296,19145023,-1955,-406,-304,1072,-349,-247
21297,19145033,-1946,-371,-240,1053,-329,-273
21298,19145043,-1920,-348,-198,1001,-339,-285
21299,19145053,-1919,-314,-186,953,-364,-281
21300,19145063,-1861,-287,-184,917,-389,-277
21301,19145073,-1903,-298,-173,883,-413,-271
21302,19145083,-1920,-270,-177,827,-438,-257
21303,19145093,-1898,-252,-161,783,-449,-249
21304,19145103,-1900,-246,-154,739,-452,-230
21305,19145113,-1928,-222,-162,651,-468,-217
21306,19145123,-1933,-218,-167,577,-486,-194
21307,19145133,-1910,-237,-190,543,-492,-157
21308,19145143,-1955,-236,-198,448,-495,-128
21309,19145153,-1933,-200,-200,322,-473,-130
21310,19145163,-1915,-187,-215,260,-446,-95
21311,19145173,-1928,-142,-267,151,-472,-74
21312,19145183,-2045,-103,-315,9,-496,-41
21313,19145193,-2106,-117,-314,19,-485,7
21314,19145203,-2165,-56,-389,-68,-424,-11
21315,19145213,-2308,-40,-395,-175,-451,30
21316,19145223,-2383,-4,-432,-71,-445,33
21317,19145233,-2390,-37,-401,29,-430,55
21318,19145243,-2439,-105,-357,175,-412,102
21319,19145253,-2459,-164,-310,227,-403,0
21320,19145250,-2459,-164,-309,227,-403,89
21321,19145260,-2413,-194,-275,232,-381,63
21322,19145270,-2315,-198,-257,115,-330,41
21323,19145280,-2263,-158,-219,-88,-248,-26
21324,19145290,-2156,-66,-158,-105,-159,-104
21325,19145300,-2045,4,-96,-102,-121,-161
21326,19145310,-1981,54,-70,-99,-161,-160
21327,19145320,-2001,79,-47,-31,-225,-152
21328,19145330,-1973,94,-6,91,-290,-140
21329,19145340,-1974,107,7,176,-347,-140
21330,19145350,-2015,135,-22,219,-402,-133
21331,19145360,-2019,164,-28,228,-449,-122
21332,19145370,-1987,194,-66,269,-454,-100
21333,19145380,-1976,215,-55,235,-457,-71
21334,19145390,-1979,215,-14,209,-418,-46
21335,19145400,-1947,224,-35,157,-410,1
21336,19145410,-1937,233,-54,41,-423,52
21337,19145420,-1976,226,-55,-43,-369,131
21338,19145430,-1927,231,-46,-54,-307,137
21339,19145440,-1903,228,-2,-55,-242,167
21340,19145450,-1921,236,-12,-107,-207,202
21341,19145460,-1932,207,-10,-106,-176,213
21342,19145470,-1943,202,-18,-137,-140,244
21343,19145480,-1935,188,-6,-141,-112,249
21344,19145490,-1990,175,-19,-137,-83,271
21345,19145500,-2022,196,-20,-135,-63,256
