sequence,timestamp_ms,accel_x,accel_y,accel_z,gyro_x,gyro_y,gyro_z
0,12015545,-82,-345,-1925,397,-267,218
1,12015555,-92,-270,-1981,381,-328,66
2,12015565,-139,-257,-2001,390,-326,27
3,12015575,-174,-232,-1989,399,-293,23
4,12015585,-138,-172,-1981,438,-254,-4
5,12015595,-93,-216,-1967,496,-227,9
6,12015605,-137,-198,-1950,487,-220,12
7,12015615,-140,-236,-1955,545,-265,-1
8,12015625,-100,-304,-1937,600,-299,31
9,12015635,-146,-261,-1976,529,-328,-33
10,12015645,-151,-281,-1983,470,-301,36
11,12015655,-190,-228,-2028,437,-323,97
12,12015665,-157,-237,-1999,410,-288,233
13,12015675,-155,-206,-1986,396,-259,288
14,12015685,-144,-211,-1968,433,-258,293
15,12015695,-155,-209,-1974,522,-352,182
16,12015705,-108,-252,-1948,549,-335,125
17,12015715,-166,-247,-1984,519,-351,33
18,12015725,-105,-222,-1978,489,-326,-11
19,12015735,-123,-207,-2019,472,-336,17
20,12015745,-188,-210,-2039,438,-293,138
21,12015755,-144,-228,-1997,399,-188,318
22,12015765,-141,-221,-2027,404,-165,397
23,12015775,-150,-339,-1941,409,-186,498
24,12015785,-102,-246,-1988,360,-270,488
25,12015795,-114,-271,-1936,338,-266,256
26,12015792,-114,-272,-1936,339,-267,362
27,12015802,-96,-218,-1970,300,-271,292
28,12015812,-99,-270,-1966,294,-286,264
29,12015822,-91,-262,-1984,266,-213,322
30,12015832,-93,-308,-1976,258,-185,360
31,12015842,-133,-249,-1943,585,-484,287
32,12015852,-206,-250,-1942,676,-457,209
33,12015862,-214,-241,-1946,609,-436,170
34,12015872,-129,-201,-1943,590,-421,95
35,12015882,-116,-176,-1950,636,-459,-18
36,12015892,-129,-177,-1929,746,-532,-85
37,12015902,-116,-170,-1893,791,-569,-123
38,12015912,-124,-237,-1913,826,-586,-208
39,12015922,-203,-166,-1941,759,-542,-256
40,12015932,-201,-158,-1940,613,-401,-227
41,12015942,-170,-162,-1944,421,-335,-195
42,12015952,-204,-155,-1923,322,-361,-233
43,12015962,-168,-354,-2100,316,-388,-325
44,12015972,-224,-68,-1882,310,-442,-494
45,12015982,-121,-209,-1904,412,-405,-707
46,12015992,-137,-569,-2142,447,-307,-1047
47,12016002,-212,56,-1718,469,-153,-1339
48,12016012,-50,-81,-1808,656,-90,-1432
49,12016022,-66,-103,-1845,628,-479,-1073
50,12016032,-135,-84,-1846,648,-600,-1044
51,12016042,-205,-71,-1926,836,-711,-1281
52,12016039,-205,-72,-1926,837,-712,-1094
53,12016049,-188,-281,-1808,1140,-732,-1119
54,12016059,-230,-269,-1942,1175,-765,-1132
55,12016069,-246,-493,-1879,1268,-804,-1058
56,12016079,-183,-507,-1905,1099,-698,-988
57,12016089,-136,-498,-1958,863,-631,-917
58,12016099,-115,-497,-1878,713,-577,-846
59,12016109,-91,-451,-1874,642,-626,-881
60,12016119,-188,-362,-1888,632,-784,-883
61,12016129,-206,-417,-1876,767,-934,-925
62,12016139,-215,-468,-1919,787,-986,-937
63,12016149,-274,-476,-1887,869,-938,-974
64,12016159,-343,-433,-1906,906,-781,-977
65,12016169,-347,-781,-1498,1000,-588,-1017
66,12016179,-269,-348,-1884,1057,-322,-1115
67,12016189,-109,-473,-1745,1338,-193,-1253
68,12016199,-70,-460,-1787,1318,-206,-1250
69,12016209,-105,-468,-1845,1383,-262,-1216
70,12016219,-184,-490,-1863,1483,-380,-1207
71,12016229,-237,-632,-1847,1603,-402,-1146
72,12016239,-215,-692,-1929,1570,-328,-1073
73,12016249,-241,-675,-1972,1520,-340,-1157
74,12016259,-214,-735,-1920,1579,-221,-1131
75,12016269,-169,-785,-1835,1599,-97,-1081
76,12016279,-16,-834,-1809,1625,-12,-1130
77,12016289,-128,-742,-1890,1590,-11,-1281
78,12016286,-128,-743,-1890,1590,-11,-1264
79,12016296,-14,-838,-1735,1664,143,-1346
80,12016306,102,-1068,-1800,1615,181,-1290
81,12016316,141,-1171,-1937,1404,140,-1089
82,12016326,167,-1327,-1904,1072,-75,-938
83,12016336,7,-1212,-2016,657,-284,-792
84,12016346,175,-1307,-1917,399,-441,-596
85,12016356,202,-1218,-1912,-39,-584,-377
86,12016366,-11,-1026,-1943,-187,-678,-291
87,12016376,-36,-935,-1977,-36,-666,-285
88,12016386,-147,-873,-1943,326,-462,-335
89,12016396,221,-1095,-1789,816,-147,-358
90,12016406,164,-942,-1861,909,-83,-446
91,12016416,202,-960,-1766,1146,-31,-593
92,12016426,97,-941,-1800,1226,-6,-706
93,12016436,160,-968,-1789,1380,-8,-812
94,12016446,103,-1017,-1846,1326,-81,-752
95,12016456,28,-1006,-1862,1315,-171,-613
96,12016466,63,-1030,-1865,1333,-225,-425
97,12016476,-35,-949,-1914,1436,-359,-225
98,12016486,-153,-987,-1815,1747,-469,-95
99,12016496,385,-1422,-1550,2042,-447,-37
100,12016506,211,-1240,-1799,1240,-465,-232
101,12016516,149,-1211,-1719,933,-288,-470
102,12016526,159,-1069,-1760,816,-116,-689
103,12016536,88,-1017,-1733,883,47,-1024
104,12016532,89,-1017,-1733,883,47,-773
105,12016542,52,-973,-1738,1020,219,-760
106,12016552,18,-978,-1815,1231,347,-634
107,12016562,-31,-1039,-1831,1524,458,-421
108,12016572,-54,-1150,-1769,1962,423,-231
109,12016582,315,-1839,-1327,2250,318,-107
110,12016592,608,-1699,-1703,1383,239,-176
111,12016602,403,-1338,-1356,888,146,-351
112,12016612,355,-1314,-1479,370,200,-317
113,12016622,375,-1283,-1510,269,114,-419
114,12016632,200,-1244,-1593,277,59,-479
115,12016642,832,-1226,-1673,355,211,-462
116,12016652,126,-1197,-1670,257,499,-319
117,12016662,182,-1147,-1721,335,689,-172
118,12016672,298,-1144,-1722,405,886,136
119,12016682,456,-1332,-1810,452,805,682
120,12016692,507,-775,-1654,455,600,1076
121,12016702,565,-1324,-1250,351,781,1632
122,12016712,-27,2849,2248,572,-63,1182
123,12016722,242,-1342,-1292,1559,-568,1023
124,12016732,322,-1410,-1522,1513,5,564
125,12016742,201,-1373,-1604,1584,3,602
126,12016752,175,-1313,-1638,1577,165,757
127,12016762,99,-1210,-1696,1570,361,1140
128,12016772,226,-1247,-1584,1603,647,1718
129,12016782,-904,-644,-1143,1664,658,1793
130,12016779,-904,-644,-1143,1664,658,1822
131,12016789,283,-1721,-1202,1656,39,1620
132,12016799,172,-1566,-1375,1640,-194,276
133,12016809,136,-1447,-1456,1513,-500,-255
134,12016819,252,-1526,-1367,1421,-499,-434
135,12016829,29,-1385,-1400,1208,-667,-497
136,12016839,202,-1502,-1414,1048,-852,-616
137,12016849,146,-1349,-1493,754,-757,-700
138,12016859,158,-1458,-1502,621,-719,-508
139,12016869,192,-1492,-1463,481,-654,-360
140,12016879,137,-1259,-1519,352,-611,-362
141,12016889,149,-1286,-1493,436,-495,-316
142,12016899,217,-1321,-1449,558,-352,-259
143,12016909,304,-1485,-1385,619,-301,-341
144,12016919,268,-1432,-1454,517,-421,-551
145,12016929,376,-1598,-1464,388,-516,-530
146,12016939,511,-1792,-1442,49,-682,-280
147,12016949,500,-1776,-1426,-540,-1032,73
148,12016959,351,-1547,-1481,-1128,-1461,382
149,12016969,149,-1227,-1613,-1479,-1709,567
150,12016979,63,-1057,-1664,-1347,-1603,667
151,12016989,111,-1050,-1603,-995,-1294,628
152,12016999,163,-1079,-1559,-558,-1066,422
153,12017009,178,-1123,-1616,-212,-932,200
154,12017019,99,-1099,-1629,-52,-867,68
155,12017029,-10,-1005,-1682,-29,-900,0
156,12017026,-9,-1005,-1682,-29,-901,36
157,12017036,44,-1134,-1669,-101,-910,195
158,12017046,-42,-1120,-1725,-300,-1009,260
159,12017056,-176,-786,-1797,-555,-1067,293
160,12017066,-126,-893,-1727,-572,-966,578
161,12017076,-75,-784,-1744,-558,-925,612
162,12017086,-100,-723,-1740,-476,-876,610
163,12017096,-94,-786,-1724,-285,-786,654
164,12017106,-31,-772,-1701,-137,-737,570
165,12017116,-91,-756,-1728,13,-779,405
166,12017126,-137,-884,-1786,116,-773,253
167,12017136,-38,-913,-1732,33,-724,88
168,12017146,-65,-752,-1770,-59,-801,-62
169,12017156,-126,-695,-1798,-16,-874,-85
170,12017166,-200,-612,-1824,31,-843,-26
171,12017176,-174,-601,-1797,109,-744,25
172,12017186,-162,-582,-1749,205,-648,106
173,12017196,-224,-503,-1740,304,-600,110
174,12017206,-221,-468,-1737,444,-570,112
175,12017216,-228,-431,-1727,609,-539,82
176,12017226,-260,-420,-1688,786,-499,-12
177,12017236,-229,-397,-1661,1016,-477,-188
178,12017246,-213,-390,-1688,1283,-478,-343
179,12017256,-194,-438,-1683,1525,-427,-412
180,12017266,-189,-650,-1678,1726,-353,-429
181,12017276,-128,-767,-1691,1768,-316,-512
182,12017272,-128,-767,-1691,1768,-316,-456
183,12017282,-190,-816,-1743,1716,-322,-467
184,12017292,-320,-870,-1795,1667,-335,-485
185,12017302,-334,-888,-1851,1650,-326,-553
186,12017312,-220,-953,-1833,1650,-363,-645
187,12017322,-167,-1080,-1840,1573,-488,-710
188,12017332,-211,-1052,-1878,1430,-668,-756
189,12017342,-239,-1001,-1889,1199,-759,-679
190,12017352,-197,-999,-1888,1012,-765,-590
191,12017362,-123,-958,-1815,823,-736,-568
192,12017372,-118,-944,-1804,760,-786,-493
193,12017382,-94,-952,-1797,744,-847,-397
194,12017392,-147,-981,-1832,733,-902,-304
195,12017402,-189,-968,-1832,709,-939,-193
196,12017412,-204,-981,-1825,681,-955,-122
197,12017422,-240,-952,-1826,607,-936,31
198,12017432,-232,-1059,-1794,544,-927,131
199,12017442,-251,-1113,-1760,321,-892,197
200,12017452,-178,-879,-1732,80,-879,20
201,12017462,-256,-763,-1750,52,-894,-118
202,12017472,-320,-748,-1791,321,-867,-187
203,12017482,-343,-784,-1812,568,-759,-271
204,12017492,-367,-779,-1858,810,-631,-339
205,12017502,-331,-815,-1850,1011,-500,-383
206,12017512,-292,-853,-1825,1105,-402,-288
207,12017522,-247,-852,-1803,1126,-337,-256
208,12017519,-247,-852,-1803,1126,-338,-110
209,12017529,-240,-866,-1796,1102,-308,59
210,12017539,-254,-902,-1775,1067,-316,246
211,12017549,-218,-883,-1762,1013,-343,294
212,12017559,-266,-931,-1793,956,-405,327
213,12017569,-254,-924,-1753,889,-432,229
214,12017579,-269,-952,-1772,847,-487,265
215,12017589,-225,-980,-1749,771,-544,240
216,12017599,-298,-898,-1761,749,-604,125
217,12017609,-436,-798,-1846,802,-679,67
218,12017619,-436,-716,-1855,901,-570,82
219,12017629,-297,-862,-1789,1075,-393,162
220,12017639,-245,-932,-1724,1130,-327,262
221,12017649,-339,-883,-1758,1030,-367,289
222,12017659,-310,-864,-1756,973,-370,285
223,12017669,-330,-967,-1776,958,-349,292
224,12017679,-227,-1000,-1719,885,-340,253
225,12017689,-196,-1184,-1696,737,-430,234
226,12017699,-287,-1132,-1718,464,-596,100
227,12017709,-417,-914,-1820,231,-717,-176
228,12017719,-389,-830,-1842,293,-739,-341
229,12017729,-273,-920,-1755,441,-647,-313
230,12017739,-271,-1033,-1739,550,-644,-381
231,12017749,-343,-1008,-1791,432,-733,-566
232,12017759,-439,-960,-1834,377,-812,-638
233,12017769,-365,-921,-1850,279,-780,-768
234,12017766,-365,-922,-1850,279,-781,-679
235,12017776,-430,-826,-1895,226,-794,-568
236,12017786,-409,-787,-1894,239,-792,-359
237,12017796,-374,-841,-1889,242,-787,-97
238,12017806,-387,-805,-1878,182,-783,80
239,12017816,-422,-743,-1868,141,-781,143
240,12017826,-407,-717,-1837,184,-748,197
241,12017836,-384,-716,-1812,274,-731,208
242,12017846,-400,-749,-1789,338,-748,211
243,12017856,-468,-738,-1796,325,-774,172
244,12017866,-494,-591,-1822,238,-748,56
245,12017876,-540,-556,-1832,331,-706,35
246,12017886,-575,-551,-1819,449,-614,101
247,12017896,-555,-537,-1844,560,-543,176
248,12017906,-653,-560,-1882,616,-493,301
249,12017916,-695,-545,-1891,723,-452,261
250,12017926,-654,-631,-1861,838,-326,286
251,12017936,-620,-595,-1863,844,-283,322
252,12017946,-591,-604,-1854,850,-253,348
253,12017956,-635,-634,-1864,859,-263,422
254,12017966,-591,-648,-1837,826,-265,498
255,12017976,-518,-712,-1821,807,-289,563
256,12017986,-566,-691,-1821,738,-354,670
257,12017996,-567,-693,-1826,696,-400,630
258,12018006,-557,-646,-1827,600,-408,646
259,12018016,-595,-600,-1856,581,-409,512
260,12018012,-595,-601,-1856,582,-410,581
261,12018022,-595,-587,-1822,577,-378,576
262,12018032,-567,-571,-1783,627,-356,542
263,12018042,-562,-648,-1798,690,-362,520
264,12018052,-526,-589,-1797,645,-412,451
265,12018062,-537,-625,-1804,634,-437,419
266,12018072,-485,-635,-1770,641,-486,371
267,12018082,-517,-642,-1769,614,-546,320
268,12018092,-552,-640,-1786,634,-607,261
269,12018102,-575,-579,-1825,573,-688,214
270,12018112,-611,-566,-1833,589,-698,191
271,12018122,-625,-581,-1800,599,-658,211
272,12018132,-664,-550,-1838,568,-627,193
273,12018142,-634,-517,-1822,567,-565,169
274,12018152,-620,-524,-1793,600,-522,150
275,12018162,-628,-547,-1801,661,-507,131
276,12018172,-619,-515,-1798,669,-501,100
277,12018182,-619,-510,-1809,694,-502,84
278,12018192,-629,-552,-1818,724,-498,74
279,12018202,-651,-536,-1818,720,-504,71
280,12018212,-670,-509,-1835,716,-498,64
281,12018222,-659,-526,-1833,719,-474,57
282,12018232,-662,-540,-1832,723,-461,63
283,12018242,-676,-515,-1857,706,-453,55
284,12018252,-657,-534,-1838,700,-424,50
285,12018262,-663,-513,-1828,691,-403,0
286,12018259,-663,-514,-1828,691,-403,43
287,12018269,-692,-522,-1837,676,-397,32
288,12018279,-668,-490,-1807,669,-386,14
289,12018289,-692,-492,-1831,688,-398,9
290,12018299,-718,-473,-1839,706,-413,6
291,12018309,-723,-492,-1859,726,-411,9
292,12018319,-698,-473,-1838,712,-402,9
293,12018329,-702,-474,-1828,710,-408,2
294,12018339,-723,-455,-1830,716,-422,-7
295,12018349,-720,-443,-1812,735,-425,-9
296,12018359,-742,-407,-1813,752,-422,-14
297,12018369,-753,-419,-1825,843,-421,-21
298,12018379,-759,-442,-1802,954,-401,-39
299,12018389,-757,-437,-1790,843,-372,-54
300,12018399,-737,-469,-1793,869,-351,-62
301,12018409,-753,-475,-1811,864,-367,-57
302,12018419,-762,-480,-1803,851,-368,-62
303,12018429,-766,-493,-1816,834,-374,-56
304,12018439,-789,-505,-1823,821,-378,-37
305,12018449,-760,-473,-1812,797,-382,-21
306,12018459,-741,-483,-1823,774,-393,-5
307,12018469,-757,-473,-1804,757,-395,-2
308,12018479,-767,-480,-1790,770,-395,-3
309,12018489,-744,-461,-1801,779,-394,-8
310,12018499,-775,-452,-1789,793,-383,-17
311,12018509,-767,-467,-1814,809,-354,-256
312,12018506,-767,-468,-1814,810,-355,-34
313,12018516,-741,-449,-1790,823,-328,-56
314,12018526,-738,-484,-1811,841,-320,-73
315,12018536,-750,-479,-1810,854,-319,-99
316,12018546,-778,-487,-1805,870,-329,-103
317,12018556,-746,-471,-1810,870,-334,-94
318,12018566,-759,-482,-1805,856,-336,-80
319,12018576,-778,-476,-1809,856,-338,-68
320,12018586,-755,-484,-1822,878,-337,-55
321,12018596,-754,-473,-1811,880,-337,-60
322,12018606,-781,-513,-1836,886,-336,-61
323,12018616,-787,-528,-1842,901,-333,-65
324,12018626,-796,-527,-1873,907,-320,-84
325,12018636,-799,-585,-1903,916,-272,-141
326,12018646,-819,-626,-1954,938,-220,-222
327,12018656,-772,-747,-1997,974,-185,-317
328,12018666,-737,-829,-2060,996,-166,-405
329,12018676,-719,-886,-2175,996,-154,-500
330,12018686,-682,-934,-2276,1023,-121,-569
331,12018696,-789,-745,-2292,995,-31,-664
332,12018706,-1091,-465,-2467,1137,75,-723
333,12018716,-1505,-345,-2600,1642,543,-169
334,12018726,-1584,-636,-2469,2522,1290,129
335,12018736,-2127,-310,-2673,2645,1836,-762
336,12018746,-2187,132,-2829,2935,2305,-1407
337,12018756,-2230,229,-2772,3235,2777,-1537
338,12018753,-2230,229,-2772,3236,2776,-1535
339,12018763,-2167,450,-2689,3401,3094,-1144
340,12018773,-2187,469,-2666,2943,3097,-249
341,12018783,-2350,612,-2872,2316,2911,618
342,12018793,-2176,744,-2737,1628,3203,1680
343,12018803,-2150,453,-2730,1483,3603,2870
344,12018813,-2148,171,-2452,1259,3993,4163
345,12018823,-1950,268,-2351,818,4389,4775
346,12018833,-1828,510,-2122,851,4834,5223
347,12018843,-1587,317,-1705,1245,5233,5789
348,12018853,-1347,-99,-1395,1892,5535,6285
349,12018863,-1124,-632,-1115,2192,5592,6777
350,12018873,-763,-1292,-618,2102,5468,7183
351,12018883,-330,-1891,-432,1806,4725,7087
352,12018893,-316,-2388,-183,950,3433,7104
353,12018903,-49,-2826,-26,-270,3021,7202
354,12018913,401,-3326,370,-1263,2517,6966
355,12018923,1120,-3799,732,-2148,2119,6958
356,12018933,1533,-4512,781,-2790,1316,7171
357,12018943,1362,-5446,152,-3268,254,6955
358,12018953,1101,-5858,-307,-3521,-520,5670
359,12018963,565,-5837,-427,-3169,-1133,3577
360,12018973,-54,-5485,-570,-2347,-2146,961
361,12018983,-601,-5040,-832,-1056,-3002,-1764
362,12018993,-691,-5013,-760,622,-3070,-3940
363,12019003,-443,-5131,-417,1965,-2663,-5635
364,12018999,-442,-5132,-417,1965,-2664,-5531
365,12019009,-467,-5359,-150,2574,-2781,-6780
366,12019019,-996,-5299,-85,2408,-3450,-7832
367,12019029,-1560,-4896,-166,1890,-4091,-8784
368,12019039,-2100,-3910,-470,1575,-4479,-9560
369,12019049,-2379,-3130,-506,1737,-4299,-9763
370,12019059,-2394,-2693,-392,2512,-3862,-9681
371,12019069,-2391,-2769,-214,3141,-3827,-9648
372,12019079,-2577,-2375,-350,3020,-4056,-9737
373,12019089,-2754,-1799,-630,2527,-4315,-9723
374,12019099,-2979,-1282,-867,2524,-4500,-9386
375,12019109,-3152,-1080,-1086,2837,-4385,-8946
376,12019119,-3125,-1101,-1407,2799,-3847,-8074
377,12019129,-3707,-877,-1988,2003,-3703,-6675
378,12019139,-4012,-449,-2716,890,-3631,-5650
379,12019149,-4153,258,-3344,-56,-3241,-4885
380,12019159,-4037,791,-3663,-597,-2497,-4045
381,12019169,-3615,1317,-3879,-727,-1317,-3021
382,12019179,-3214,1234,-3538,-474,-682,-1942
383,12019189,-3167,1244,-3908,49,-95,-1087
384,12019199,-2956,1925,-4153,-1370,486,-547
385,12019209,-2629,2182,-4132,-1062,833,-307
386,12019219,-2488,2387,-4314,-212,1065,-40
387,12019229,-2412,2488,-4444,564,1301,468
388,12019239,-2403,2393,-4327,535,1906,1285
389,12019249,-2313,2353,-4087,778,2649,1793
390,12019246,-2313,2353,-4087,779,2649,2006
391,12019256,-2319,2193,-3870,1057,3488,2830
392,12019266,-2254,1684,-3405,1362,4469,3769
393,12019276,-2085,1441,-3021,1057,5074,4387
394,12019286,-2113,1133,-2832,467,5199,5048
395,12019296,-2162,851,-2557,-212,5268,5749
396,12019306,-2216,544,-2290,-1033,5317,6454
397,12019316,-2180,501,-2124,-2006,5254,7231
398,12019326,-2541,324,-2155,-2632,4957,8088
399,12019336,-2810,21,-2045,-2783,4750,9016
400,12019346,-2910,-293,-1829,-2855,4746,9639
401,12019356,-3075,-828,-1620,-2807,4501,10153
402,12019366,-3310,-1312,-1401,-2917,4203,10582
403,12019376,-3436,-1775,-1359,-3049,3999,10929
404,12019386,-3395,-2394,-1252,-3040,3914,11150
405,12019396,-3141,-2989,-1174,-3083,3873,10982
406,12019406,-2837,-3168,-1202,-3392,3743,10498
407,12019416,-2657,-3217,-1221,-3478,3352,9712
408,12019426,-2404,-3508,-1248,-2916,3124,8882
409,12019436,-2223,-3974,-1285,-2310,2701,7981
410,12019446,-1924,-4455,-1246,-1838,2266,6890
411,12019456,-1518,-4660,-1050,-1610,1940,5621
412,12019466,-1077,-4349,-1060,-1819,1577,4335
413,12019476,-980,-3697,-1057,-1921,793,2974
414,12019486,-878,-3173,-1071,-1663,-113,1634
415,12019496,-849,-2961,-1114,-1129,-802,512
416,12019493,-849,-2961,-1113,-1128,-802,638
417,12019503,-767,-3138,-1129,-500,-1308,-68
418,12019513,-688,-3464,-1038,-213,-1900,-658
419,12019523,-617,-3754,-818,-352,-2483,-1360
420,12019533,-596,-3844,-568,-893,-3139,-2281
421,12019543,-800,-3516,-463,-1818,-4218,-3350
422,12019553,-1185,-3051,-560,-2736,-5508,-4567
423,12019563,-1551,-2800,-651,-3132,-6688,-5773
424,12019573,-2006,-2828,-774,-3196,-7644,-6970
425,12019583,-2555,-2999,-936,-3083,-8348,-8178
426,12019593,-3046,-3096,-892,-2985,-8511,-9226
427,12019603,-3547,-2475,-1076,-3287,-8230,-9850
428,12019613,-4108,-2437,-1383,-3090,-7427,-10023
429,12019623,-4765,-2130,-1891,-3195,-6388,-9967
430,12019633,-5100,-1732,-2067,-3682,-5032,-10027
431,12019643,-5353,-308,-2508,-4898,-3841,-10053
432,12019653,-5366,1065,-2859,-5478,-2531,-10110
433,12019663,-5162,2261,-3059,-5533,-1010,-9483
434,12019673,-5002,3194,-3213,-4797,675,-8235
435,12019683,-4685,3699,-3130,-3260,2303,-6962
436,12019693,-4039,3670,-2898,-1496,3441,-5882
437,12019703,-3768,3841,-2862,-623,3709,-4935
438,12019713,-3449,3856,-2903,-57,3692,-3765
439,12019723,-3138,3599,-2800,94,3699,-2334
440,12019733,-2807,3440,-2658,-303,3754,-989
441,12019743,-2566,3084,-2525,-690,3823,256
442,12019739,-2565,3083,-2524,-690,3822,294
443,12019749,-2377,2797,-2484,-1087,3868,1450
444,12019759,-2130,2562,-2332,-1497,4087,2428
445,12019769,-1883,2436,-2254,-1818,4251,3205
446,12019779,-1718,2426,-2252,-1581,4516,3907
447,12019789,-1724,2224,-2252,-823,4953,4693
448,12019799,-1543,1715,-1957,-92,5754,5391
449,12019809,-1351,1232,-1657,213,6298,5847
450,12019819,-1115,576,-1257,271,6309,5914
451,12019829,-950,268,-1107,-22,5954,5809
452,12019839,-939,46,-1131,-566,5434,5934
453,12019849,-965,50,-1379,-1024,5126,6108
454,12019859,-864,-301,-1301,-1147,4979,6187
455,12019869,-637,-354,-1249,-1510,4684,5926
456,12019879,-573,-3,-1322,-1802,4155,5473
457,12019889,-557,54,-1283,-1586,3852,5177
458,12019899,-433,-25,-1177,-904,3725,4863
459,12019909,-507,-221,-1116,-94,3486,4532
460,12019919,-405,-440,-854,488,3474,4220
461,12019929,-216,-896,-371,1072,3451,3884
462,12019939,70,-1236,-108,1211,3235,3540
463,12019949,293,-1453,177,921,2844,3134
464,12019959,630,-1576,330,479,2483,2848
465,12019969,1006,-1955,687,238,2270,2774
466,12019979,1326,-1962,890,-302,1815,2592
467,12019989,1418,-2083,1117,-850,1014,2049
468,12019986,1419,-2083,1117,-850,1014,2251
469,12019996,1373,-2285,1307,-1190,65,1784
470,12020006,1295,-2492,1431,-1993,-1136,1281
471,12020016,1133,-2718,1583,-2690,-2759,95
472,12020026,885,-2946,1773,-3653,-4855,-1492
473,12020036,240,-2471,1631,-4749,-7108,-3368
474,12020046,-436,-2006,1280,-4956,-8902,-5450
475,12020056,-1138,-1490,802,-4441,-10139,-7109
476,12020066,-1565,-1323,586,-3281,-10391,-8055
477,12020076,-1956,-1131,387,-2177,-10277,-8450
478,12020086,-2290,-1278,222,-997,-9961,-8702
479,12020096,-2546,-1767,51,171,-9666,-8843
480,12020106,-2800,-2307,-67,585,-9601,-8810
481,12020116,-3090,-2754,-150,341,-9594,-8867
482,12020126,-3706,-2792,-319,-622,-9550,-8952
483,12020136,-4265,-2561,-578,-1850,-9429,-8929
484,12020146,-4842,-2062,-882,-2889,-8954,-8909
485,12020156,-5431,-1311,-1551,-3547,-8119,-8877
486,12020166,-6062,-709,-2490,-3983,-7095,-8819
487,12020176,-6486,751,-3655,-4775,-6050,-8458
488,12020186,-6177,1752,-4272,-4820,-4058,-7602
489,12020196,-5609,2035,-4317,-3630,-1493,-6022
490,12020206,-4555,1217,-3549,-2039,1005,-3992
491,12020216,-3837,601,-2777,-944,2701,-2294
492,12020226,-3778,75,-2183,-353,3327,-1257
493,12020236,-3438,22,-1711,-258,3810,-1281
494,12020233,-3438,21,-1711,-258,3809,-1177
495,12020243,-3361,-60,-1631,-378,4021,-1078
496,12020253,-3298,-213,-1579,-493,4292,-713
497,12020263,-3213,-77,-1642,-733,4517,-527
498,12020273,-3063,91,-1615,-1013,4504,-629
499,12020283,-2983,429,-1619,-1005,4435,-1026
500,12020293,-2838,710,-1421,-1186,4703,-1313
501,12020303,-2660,826,-1133,-808,5215,-1349
502,12020313,-2511,1304,-1016,-729,5418,-1419
503,12020323,-2468,1746,-978,-337,5318,-1701
504,12020333,-2252,2014,-887,539,5261,-1876
505,12020343,-2048,2007,-897,1336,4770,-2053
506,12020353,-1721,2299,-887,2024,4174,-2361
507,12020363,-1465,2402,-825,2131,3527,-2159
508,12020373,-1376,2341,-897,2274,2936,-1598
509,12020383,-1350,2210,-1001,2111,2466,-776
510,12020393,-1291,2131,-995,1716,2209,127
511,12020403,-1163,2203,-855,1030,2007,957
512,12020413,-1108,2457,-762,255,1607,1716
513,12020423,-1056,2765,-661,-487,1107,2493
514,12020433,-1026,3071,-503,-1098,546,3262
515,12020443,-953,3195,-178,-1449,-114,3997
516,12020453,-899,3248,101,-1756,-987,4795
517,12020463,-996,3117,330,-1879,-2077,5478
518,12020473,-1184,3010,546,-1878,-3324,5994
519,12020483,-1455,2974,533,-1881,-4391,6147
520,12020479,-1455,2974,534,-1881,-4391,6372
521,12020489,-1892,3139,278,-1535,-5106,6758
522,12020499,-2387,3275,-82,-944,-5396,7037
523,12020509,-2795,3114,-288,232,-5159,7118
524,12020519,-3021,2857,-342,1142,-4866,7116
525,12020529,-3216,2688,-402,1978,-4610,7102
526,12020539,-3524,2307,-474,2683,-4554,7148
527,12020549,-3798,1995,-632,3105,-4631,7086
528,12020559,-4053,1789,-822,3209,-4742,7029
529,12020569,-4214,1477,-960,3239,-4730,6962
530,12020579,-4283,1235,-1057,3196,-4512,6961
531,12020589,-4247,883,-1045,3315,-4129,6976
532,12020599,-4090,297,-961,3692,-3678,7101
533,12020609,-3977,-253,-1025,3789,-3375,7199
534,12020619,-3911,-830,-1171,4003,-3210,7087
535,12020629,-3834,-1250,-1451,4139,-2951,6775
536,12020639,-3765,-1586,-1692,4236,-2495,6212
537,12020649,-3541,-1900,-1892,4507,-1804,5352
538,12020659,-3068,-1983,-2115,4238,-1231,4485
539,12020669,-3139,-1885,-2418,4399,-1085,3632
540,12020679,-2756,-1566,-2454,3973,-786,2478
541,12020689,-2492,-1633,-2340,4210,-271,1704
542,12020699,-2269,-1780,-2277,4118,-15,1282
543,12020709,-2170,-1988,-2323,3670,21,948
544,12020719,-2103,-1969,-2503,2961,63,715
545,12020729,-1955,-2022,-2458,2383,268,512
546,12020726,-1955,-2023,-2458,2383,268,586
547,12020736,-1862,-1960,-2522,1784,430,503
548,12020746,-1721,-1823,-2504,1240,540,324
549,12020756,-1586,-1754,-2362,949,663,66
550,12020766,-1377,-1321,-2267,663,935,-333
551,12020776,-1333,-1218,-2079,968,1181,-727
552,12020786,-1062,-1023,-1749,1167,1305,-1262
553,12020796,-878,-794,-1525,1153,1101,-1744
554,12020806,-717,-823,-1323,1190,675,-2155
555,12020816,-650,-861,-1187,1122,190,-2496
556,12020826,-623,-922,-1124,793,-414,-2799
557,12020836,-679,-977,-1159,288,-1232,-3072
558,12020846,-881,-814,-1389,-422,-2076,-3489
559,12020856,-1086,-605,-1581,-1118,-2595,-3984
560,12020866,-1232,-2,-1953,-1660,-2738,-4282
561,12020876,-1308,293,-2157,-1413,-2141,-4178
562,12020886,-1224,365,-2099,-898,-1205,-3801
563,12020896,-1184,310,-1992,-350,-507,-3437
564,12020906,-1090,78,-1957,-8,-371,-3452
565,12020916,-1215,892,-2455,53,-668,-3826
566,12020926,-1302,457,-2384,513,-653,-3953
567,12020936,-1663,590,-2873,1848,-569,-4340
568,12020946,-2044,628,-3047,2165,235,-5013
569,12020956,-2254,809,-3212,2415,1218,-5289
570,12020966,-2420,767,-3378,2874,2459,-5443
571,12020976,-2314,1125,-3372,2227,3476,-5378
572,12020973,-2314,1124,-3371,2227,3475,-5222
573,12020983,473,2158,-2463,1764,5021,-4305
574,12020993,-2483,745,-4059,4703,2045,-4792
575,12021003,-2251,-1591,-4058,5911,-173,-4815
576,12021013,-1879,1171,-2888,280,2722,-3567
577,12021023,-1940,1186,-3484,-139,2051,-2005
578,12021033,-2147,985,-3577,761,2428,-1982
579,12021043,-1870,856,-3312,784,3000,-1470
580,12021053,-1706,786,-3119,797,3370,-937
581,12021063,-1614,303,-3031,776,3750,-552
582,12021073,-1730,62,-2829,111,4523,-261
583,12021083,-1412,25,-2414,-641,5407,-123
584,12021093,-1021,163,-2196,-1156,5800,-93
585,12021103,-977,103,-1949,-1571,5830,20
586,12021113,-465,165,-1675,-1985,5890,241
587,12021123,-630,89,-1629,-2270,5579,615
588,12021133,-715,121,-1485,-2258,5276,970
589,12021143,-506,2,-1263,-1927,5233,1374
590,12021153,-442,-149,-1170,-1495,5252,1706
591,12021163,-363,-335,-1004,-1497,5348,1969
592,12021173,-357,-400,-877,-1638,5371,2218
593,12021183,-240,-654,-709,-1402,5412,2257
594,12021193,-11,-672,-378,-1504,5309,2286
595,12021203,285,-652,2,-1643,4984,2394
596,12021213,565,-583,413,-1617,4181,2412
597,12021223,1070,-772,890,-1335,3442,2305
598,12021220,1071,-772,891,-1334,3441,2389
599,12021230,2024,-1561,1225,-751,3002,2066
600,12021240,2649,-1640,1689,-1069,2302,1315
601,12021250,3621,-1649,2573,-1889,1478,608
602,12021260,3358,-661,2854,-2920,-631,-256
603,12021270,2105,-751,2372,-2714,-3896,-960
604,12021280,1584,-1440,1917,-1666,-6586,-932
605,12021290,1228,-1483,1984,-1997,-8427,-1373
606,12021300,1040,-1243,2402,-2101,-9826,-2292
607,12021310,365,-1617,2498,-653,-11141,-3344
608,12021320,-176,-2116,2533,591,-12464,-4194
609,12021330,-826,-2335,2449,1089,-13507,-4896
610,12021340,-1673,-2312,2258,1083,-14531,-5444
611,12021350,-2382,-2197,1953,250,-14820,-6029
612,12021360,-2607,-2354,1785,-189,-13976,-6881
613,12021370,-2885,-2162,1624,-631,-12995,-7643
614,12021380,-3263,-1911,1642,-1138,-12135,-7559
615,12021390,-3646,-1646,1926,-1634,-11441,-7142
616,12021400,-4173,-1025,1931,-2420,-11084,-6694
617,12021410,-4760,-598,1678,-2548,-10759,-6059
618,12021420,-5456,-195,1153,-2365,-10470,-5449
619,12021430,-6379,306,304,-2364,-10221,-4811
620,12021440,-7592,157,-543,-2267,-9779,-4639
621,12021450,-6589,1428,-1944,-3081,-8577,-5775
622,12021460,-6979,875,-2059,-2044,-6810,-4686
623,12021470,-5696,1041,-1887,-947,-4067,-3586
624,12021466,-5696,1041,-1887,-947,-4067,-3465
625,12021476,-5355,610,-1305,-277,-1527,-2059
626,12021486,-4604,100,-847,49,106,-1616
627,12021496,-4128,-197,-596,-45,841,-952
628,12021506,-3733,-346,-410,-113,1216,-245
629,12021516,-3480,-397,-399,-245,1379,327
630,12021526,-3259,-485,-443,-108,1458,591
631,12021536,-3126,-651,-545,95,1545,573
632,12021546,-3001,-913,-689,133,1695,432
633,12021556,-2814,-959,-749,-84,1900,352
634,12021566,-2732,-1013,-758,-274,1977,287
635,12021576,-2708,-919,-818,-521,1935,252
636,12021586,-2619,-862,-881,-587,1963,154
637,12021596,-2475,-833,-910,-540,2047,-22
638,12021606,-2390,-856,-900,-525,2176,-136
639,12021616,-2261,-719,-867,-542,2489,-286
640,12021626,-1978,-591,-711,-358,2851,-617
641,12021636,-1713,-730,-592,126,2964,-916
642,12021646,-1505,-867,-513,444,2852,-1047
643,12021656,-1463,-985,-526,483,2621,-1093
644,12021666,-1438,-1089,-534,308,2450,-1089
645,12021676,-1408,-1162,-502,-69,2414,-1245
646,12021686,-1384,-1059,-472,-560,2374,-1422
647,12021696,-957,-784,-291,-700,2326,-1643
648,12021706,-1117,-758,-293,-210,1883,-2244
649,12021716,-1311,-1431,-488,1043,1019,-3586
650,12021713,-1311,-1432,-487,1044,1019,-3351
651,12021723,-1506,-1413,-516,515,1289,-2987
652,12021733,-1541,-1209,-570,194,962,-2662
653,12021743,-1617,-1132,-646,98,584,-2522
654,12021753,-1670,-1040,-840,249,518,-2673
655,12021763,-1786,-756,-854,412,639,-3073
656,12021773,-1662,-851,-800,910,858,-3842
657,12021783,-1666,-806,-697,1002,706,-4450
658,12021793,-1698,-711,-609,790,750,-4629
659,12021803,-1589,-676,-634,545,779,-4543
660,12021813,-1715,-588,-713,352,643,-4204
661,12021823,-1923,-490,-1000,717,436,-3956
662,12021833,-2022,-510,-1235,1234,581,-4010
663,12021843,-2152,-437,-1310,1709,909,-4097
664,12021853,-2163,-486,-1375,2139,1237,-3945
665,12021863,-1983,-617,-1397,2439,1527,-3797
666,12021873,-1862,-630,-1279,2100,1679,-3609
667,12021883,-1974,-603,-1262,1606,1722,-3156
668,12021893,-1894,-528,-1215,1293,2033,-2521
669,12021903,-1690,-472,-1364,1169,1996,-1792
670,12021913,-2042,-580,-1530,1218,1480,-1198
671,12021923,-2064,-547,-1524,1229,1723,-724
672,12021933,-2011,-633,-1470,1363,1921,-227
673,12021943,-1936,-934,-1465,1594,2181,199
674,12021953,-1872,-1150,-1421,1585,2308,716
675,12021963,-2076,-1082,-1372,1387,2247,1024
676,12021960,-2076,-1083,-1372,1387,2247,1063
677,12021970,-2146,-1070,-1310,1380,2406,1164
678,12021980,-2191,-1062,-1259,1396,2694,974
679,12021990,-2254,-960,-1252,1405,3157,863
680,12022000,-2385,-901,-1374,1291,3538,1032
681,12022010,-2558,-929,-1575,1193,3936,1396
682,12022020,-2764,-881,-1702,1027,4478,1857
683,12022030,-2786,-1045,-1759,857,5267,2251
684,12022040,-2752,-1115,-1616,400,6037,2809
685,12022050,-2666,-1152,-1351,-12,6890,3324
686,12022060,-2404,-1099,-1005,-30,7426,3607
687,12022070,-2329,-1011,-708,335,7644,3609
688,12022080,-2070,-1181,-322,990,7817,3371
689,12022090,-1975,-1427,-67,1659,7971,3086
690,12022100,-1896,-1770,258,2045,8182,2959
691,12022110,-1822,-2098,543,2245,8340,3002
692,12022120,-1663,-2413,941,2635,8627,2956
693,12022130,-1522,-2667,1376,3028,8872,2910
694,12022140,-1144,-2774,2012,3396,9056,2749
695,12022150,-892,-2777,2510,3629,8738,2471
696,12022160,349,-3163,3362,3972,8447,2073
697,12022170,1710,-3745,4047,3810,7781,1563
698,12022180,3481,-4239,4237,3285,6558,1093
699,12022190,3688,-3554,4130,2530,4651,220
700,12022200,2619,-2786,3550,2435,2334,-751
701,12022210,1456,-2852,2678,3525,227,-1537
702,12022206,1457,-2852,2678,3525,227,-1329
703,12022216,934,-2988,1935,4628,-872,-1561
704,12022226,621,-2643,1687,4672,-1258,-1720
705,12022236,-466,698,3984,4030,-1051,-1479
706,12022246,141,-3303,818,8083,-173,-872
707,12022256,822,-2815,648,2613,-2104,-652
708,12022266,452,-2588,449,1198,-1739,-100
709,12022276,236,-2091,157,-890,-1628,326
710,12022286,60,-2044,-284,-1146,-1324,477
711,12022296,-58,-1998,-611,-1221,-1037,418
712,12022306,52,-1833,-773,-1406,-675,480
713,12022316,87,-1684,-773,-1229,-417,378
714,12022326,83,-1691,-989,-754,-305,264
715,12022336,-28,-1641,-1071,-55,-85,119
716,12022346,-13,-1775,-1112,694,230,-95
717,12022356,82,-1954,-1050,1221,528,-233
718,12022366,122,-2050,-874,1285,753,-132
719,12022376,196,-2113,-725,1336,915,0
720,12022386,306,-2202,-614,1536,928,78
721,12022396,309,-2171,-540,1718,937,85
722,12022406,535,-2320,-381,1875,1043,93
723,12022416,496,-2481,-391,2055,1012,-154
724,12022426,615,-2325,-227,1842,1030,-384
725,12022436,641,-2253,-100,1733,1052,-655
726,12022446,605,-2220,-93,1722,982,-834
727,12022456,543,-2067,-105,1791,910,-1024
728,12022453,544,-2067,-105,1791,910,-925
729,12022463,599,-2485,-137,2192,812,-972
730,12022473,703,-2457,14,2252,702,-1077
731,12022483,632,-2479,86,2117,588,-1190
732,12022493,586,-2448,67,2098,543,-1183
733,12022503,469,-2349,147,2190,809,-1235
734,12022513,-109,-2199,108,2421,1341,-1399
735,12022523,1076,-2046,534,3081,2863,-1815
736,12022533,960,-2170,283,4326,1892,-2347
737,12022543,813,-2080,447,3080,1556,-1722
738,12022553,476,-2083,235,2986,1046,-1393
739,12022563,628,-2137,481,2669,1409,-1891
740,12022573,896,-2019,504,2243,1602,-1824
741,12022583,722,-1953,518,1928,862,-1075
742,12022593,808,-2049,520,1822,351,-691
743,12022603,757,-1795,575,1706,217,-886
744,12022613,762,-1660,652,1811,731,-1007
745,12022623,809,-1578,738,1708,757,-989
746,12022633,767,-1558,805,1708,696,-1156
747,12022643,683,-1429,895,1527,850,-1365
748,12022653,689,-1347,1029,1377,1248,-1613
749,12022663,1001,-1424,1050,1450,1994,-1934
750,12022673,948,-1311,1107,1150,1475,-1789
751,12022683,939,-1261,1162,658,986,-1537
752,12022693,888,-1209,1187,-55,873,-1246
753,12022703,919,-1070,1242,-647,782,-768
754,12022700,919,-1071,1243,-647,782,-692
755,12022710,816,-959,1222,-825,464,216
756,12022720,755,-775,1176,-696,379,789
757,12022730,-251,1979,-1049,-255,549,684
758,12022740,589,-1751,2352,3993,1728,1667
759,12022750,353,-642,2128,2032,493,2077
760,12022760,1254,-655,2687,1250,2162,-80
761,12022770,1109,-402,3095,648,1296,616
762,12022780,1378,-160,3382,-167,653,672
763,12022790,1595,61,3856,-808,-204,929
764,12022800,1600,-8,4237,-1204,-1792,1759
765,12022810,1551,278,4128,-1859,-3577,2711
766,12022820,1121,-26,3966,-1838,-5232,3362
767,12022830,816,-314,4017,-722,-6599,3670
768,12022840,770,-541,4154,496,-7323,3649
769,12022850,645,-811,4283,1516,-7884,3486
770,12022860,466,-1071,4295,2307,-8430,3428
771,12022870,122,-1394,4302,2971,-8977,3332
772,12022880,-296,-1635,4169,3307,-9483,3135
773,12022890,-614,-1864,3884,3528,-9893,2788
774,12022900,-729,-1792,3450,3558,-10187,2436
775,12022910,-1174,-1816,3005,3418,-10395,2151
776,12022920,-1084,-1723,2617,3304,-10279,1962
777,12022930,-1117,-1806,2310,3299,-9950,1924
778,12022940,-1432,-1570,1934,3166,-9625,2110
779,12022950,-1173,-2493,2155,3476,-9157,2049
780,12022947,-1173,-2493,2156,3476,-9158,2058
781,12022957,-1497,-2605,1912,2365,-8917,2818
782,12022967,-1883,-2761,1754,1062,-8922,3347
783,12022977,-2234,-3238,1416,362,-8512,3430
784,12022987,-2369,-3408,677,-416,-8018,3503
785,12022997,-2279,-2810,35,-1192,-7496,3411
786,12023007,-2700,-3105,-241,-247,-7754,2360
787,12023017,-2241,-2776,-476,103,-6863,807
788,12023027,-2293,-2269,-731,-197,-5937,311
789,12023037,-2053,-2207,-689,480,-5195,-1
790,12023047,-1782,-2123,-635,852,-4305,-209
791,12023057,-1716,-2072,-624,1146,-3737,-329
792,12023067,-1468,-2052,-640,1400,-3188,-431
793,12023077,-1412,-2038,-583,1526,-2872,-478
794,12023087,-1221,-1967,-473,1484,-2404,-573
795,12023097,-1124,-1940,-444,1488,-1996,-447
796,12023107,-1047,-1926,-404,1571,-1668,-245
797,12023117,-848,-1951,-319,1652,-1248,-255
798,12023127,-739,-1967,-216,1659,-862,-201
799,12023137,-627,-2019,-100,1578,-501,-69
800,12023147,-574,-2283,193,1409,-167,23
801,12023157,-323,-1974,41,140,-351,271
802,12023167,-477,-2185,223,778,233,348
803,12023177,-405,-2189,244,534,515,421
804,12023187,-408,-2270,264,394,761,406
805,12023197,-483,-2362,271,301,906,0
806,12023193,-482,-2363,272,302,906,211
807,12023203,-631,-2534,191,326,981,-124
808,12023213,-727,-2582,37,158,978,-533
809,12023223,-754,-2567,39,160,1011,-1008
810,12023233,-1048,-2618,-113,363,1058,-1235
811,12023243,-1372,-2518,-367,452,1271,-1444
812,12023253,-1603,-2514,-467,786,2076,-1742
813,12023263,-1616,-2585,-290,1129,3228,-2001
814,12023273,-1741,-2770,-81,1334,4202,-2091
815,12023283,-1827,-2853,32,1080,4958,-2136
816,12023293,-1934,-2894,249,616,5561,-2303
817,12023303,-2032,-2651,349,-1,6275,-2738
818,12023313,-1928,-2360,698,-294,7134,-3262
819,12023323,-1848,-2105,1044,-367,7834,-3725
820,12023333,-1804,-1865,1200,-632,8236,-4031
821,12023343,-1871,-1514,1112,-1093,8766,-4146
822,12023353,-1871,-1316,1404,-1194,9489,-4388
823,12023363,-1838,-1113,1841,-1008,9891,-4685
824,12023373,-1907,-924,2123,-850,10037,-4852
825,12023383,-1928,-766,2609,-687,10560,-4705
826,12023393,-1790,-778,3457,-398,11237,-4344
827,12023403,-1612,-1004,3995,-337,11402,-3814
828,12023413,-1460,-926,4341,-1215,11232,-3121
829,12023423,-1117,-715,4730,-2099,10910,-2862
830,12023433,-743,-363,4891,-2552,10414,-2820
831,12023443,-274,-194,5006,-2577,9826,-3073
832,12023440,-273,-195,5007,-2577,9826,-2902
833,12023450,325,-242,5153,-2358,9155,-3050
834,12023460,1093,-217,5413,-2025,8451,-3173
835,12023470,1951,-70,5833,-1543,7769,-3190
836,12023480,2050,-321,5348,-1102,6422,-2603
837,12023490,1222,-460,4558,-1155,4323,-1087
838,12023500,398,-928,4043,-787,2820,-35
839,12023510,80,-1243,3560,-485,1858,109
840,12023520,-134,-1291,3092,-671,1239,157
841,12023530,-190,-1315,2772,-854,738,142
842,12023540,-86,-1334,2523,-875,196,8
843,12023550,26,-1363,2269,-946,-328,-10
844,12023560,205,-1377,2079,-1061,-608,109
845,12023570,332,-1401,1946,-1221,-827,324
846,12023580,259,-1466,1785,-1347,-1135,613
847,12023590,294,-1541,1638,-1510,-1260,775
848,12023600,321,-1559,1550,-1763,-1245,728
849,12023610,350,-1618,1595,-1953,-1337,771
850,12023620,372,-1632,1509,-2224,-1598,888
851,12023630,425,-1669,1464,-2430,-1957,1001
852,12023640,490,-1700,1477,-2463,-2433,1089
853,12023650,487,-1703,1394,-2495,-3048,1226
854,12023660,458,-1748,1336,-2451,-3699,1403
855,12023670,341,-1835,1237,-2341,-4336,1657
856,12023680,181,-1990,1194,-2336,-4818,1972
857,12023690,111,-2160,1213,-2411,-5075,2049
858,12023687,112,-2160,1213,-2411,-5075,2266
859,12023697,-59,-2289,1105,-2817,-5195,2669
860,12023707,-263,-2314,916,-3429,-5187,3043
861,12023717,-479,-2366,631,-4047,-5060,3254
862,12023727,-681,-2332,306,-4662,-4729,3395
863,12023737,-776,-2370,19,-5082,-4112,3411
864,12023747,-1104,-2428,-399,-5370,-3514,3363
865,12023757,-1214,-2418,-781,-5585,-3127,2964
866,12023767,-1415,-2563,-1181,-5638,-2883,2309
867,12023777,-1837,-2514,-1940,-5950,-2623,1894
868,12023787,-2207,-2271,-2889,-6073,-2136,1195
869,12023797,-2070,-2050,-3096,-5551,-429,-90
870,12023807,-1567,-1772,-2916,-4861,1988,-938
871,12023817,-1257,-1608,-2336,-4110,3973,-927
872,12023827,-1018,-1569,-1905,-3467,4851,-810
873,12023837,-771,-1442,-1873,-3491,5025,-983
874,12023847,-864,-1349,-2313,-3648,5049,-1051
875,12023857,-862,-1167,-2424,-3490,5547,-1209
876,12023867,-730,-1244,-2383,-2683,5997,-1409
877,12023877,-504,-1235,-2208,-2249,5762,-1545
878,12023887,-442,-993,-2295,-2505,5401,-1559
879,12023897,-432,-868,-2399,-2719,5388,-1604
880,12023907,-356,-877,-2337,-2419,5768,-1519
881,12023917,-259,-838,-2138,-2054,6391,-1557
882,12023927,-13,-704,-1754,-2009,6893,-1900
883,12023937,262,-521,-1643,-2122,6943,-2049
884,12023933,263,-521,-1643,-2122,6942,-2016
885,12023943,424,-423,-1602,-2305,6722,-1823
886,12023953,601,-245,-1496,-2340,6271,-1436
887,12023963,613,-342,-1245,-1925,5746,-895
888,12023973,646,-211,-1062,-1709,5154,-586
889,12023983,676,-137,-907,-1585,4782,-556
890,12023993,687,-332,-536,-1241,4690,-384
891,12024003,861,-494,12,-1002,4583,-192
892,12024013,921,-484,386,-1101,4116,-64
893,12024023,964,-463,886,-1067,3583,81
894,12024033,1237,-268,1460,-898,3007,-3
895,12024043,1572,-210,2246,-755,2334,-18
896,12024053,1979,72,2952,-1041,1632,88
897,12024063,2154,142,3323,-1554,789,417
898,12024073,1995,276,3559,-2035,-1030,1045
899,12024083,1638,416,3493,-2251,-3418,1354
900,12024093,1200,566,3485,-2045,-5715,1538
901,12024103,602,484,3425,-1557,-8041,1619
902,12024113,-123,570,3245,-1262,-10585,1670
903,12024123,-720,870,2988,-1185,-12536,1562
904,12024133,-1298,1188,2848,-976,-13813,1502
905,12024143,-1835,1399,2721,-408,-14785,1501
906,12024153,-2403,1448,2587,393,-15612,1617
907,12024163,-2930,1204,2442,1143,-16147,1689
908,12024173,-3404,1039,2222,1508,-16114,1994
909,12024183,-3692,688,2150,1934,-15472,2305
910,12024180,-3692,688,2151,1934,-15472,2434
911,12024190,-3806,497,1929,1985,-14473,3057
912,12024200,-3875,282,1582,1604,-13552,3671
913,12024210,-3777,327,1313,977,-12829,3867
914,12024220,-3689,279,1074,539,-12206,3786
915,12024230,-3624,644,935,80,-11477,3665
916,12024240,-3887,825,1170,9,-10569,3450
917,12024250,-4163,928,1331,123,-9301,3387
918,12024260,-4469,1014,1675,36,-7960,3642
919,12024270,-4798,1011,1862,-158,-7063,4070
920,12024280,-4968,870,1801,-527,-6377,4529
921,12024290,-5140,746,1557,-891,-5787,5001
922,12024300,-5506,439,1401,-763,-5277,5116
923,12024310,-5770,147,1180,-626,-4817,4668
924,12024320,-6075,30,1051,-604,-4569,3803
925,12024330,-6322,-270,763,-400,-4641,2896
926,12024340,-6452,-478,320,-201,-4966,1976
927,12024350,-6430,-473,-103,-20,-5048,737
928,12024360,-6408,-354,-282,594,-4530,-535
929,12024370,-6189,-319,-364,1396,-3624,-1595
930,12024380,-5968,-327,-426,1975,-2765,-2294
931,12024390,-5653,-306,-494,1954,-1783,-2847
932,12024400,-5380,-290,-641,1657,-416,-3304
933,12024410,-5157,-320,-639,1337,1144,-3599
934,12024420,-4958,-138,-538,995,2545,-3916
935,12024430,-4723,-18,-512,613,3720,-4098
936,12024427,-4723,-19,-511,614,3720,-3981
937,12024437,-4670,166,-613,157,4711,-3726
938,12024447,-4675,400,-829,-162,5893,-3469
939,12024457,-4678,448,-786,-23,7496,-3100
940,12024467,-4725,82,-546,403,9307,-2712
941,12024477,-4795,-215,-605,311,10756,-2305
942,12024487,-5053,-501,-699,23,12027,-1574
943,12024497,-5213,-860,-478,386,13277,-745
944,12024507,-5061,-946,-315,272,13977,-632
945,12024517,-4818,-876,-321,-237,14020,-893
946,12024527,-4481,-1072,-430,-203,13863,-1246
947,12024537,-4014,-933,-780,-374,13490,-1887
948,12024547,-3571,-480,-922,-287,12753,-2558
949,12024557,-3039,-129,-1048,207,11893,-3251
950,12024567,-2518,334,-1102,623,11247,-3493
951,12024577,-2013,414,-1184,1059,10508,-3527
952,12024587,-1500,557,-1420,1230,9870,-2813
953,12024597,-1409,405,-1272,1883,9090,-1664
954,12024607,-1110,-271,-977,2865,8201,-1228
955,12024617,-1002,-257,-1281,2687,7756,-1242
956,12024627,-978,-341,-1309,1758,7366,-837
957,12024637,-876,-268,-1336,1496,7081,-969
958,12024647,-907,-160,-1374,1621,7052,-1081
959,12024657,-664,-199,-979,2003,7433,-1320
960,12024667,-397,-189,-591,2136,7316,-1683
961,12024677,-330,-94,-549,1732,6785,-1793
962,12024674,-330,-95,-548,1732,6785,-1619
963,12024684,-132,-73,-306,1384,6534,-1478
964,12024694,145,-89,-14,1258,6347,-1497
965,12024704,343,192,139,808,5963,-1424
966,12024714,436,301,294,559,5699,-1132
967,12024724,739,327,728,784,5749,-1187
968,12024734,1152,445,1324,534,5361,-1148
969,12024744,1348,613,1677,95,4554,-735
970,12024754,1636,764,1933,-247,3645,-388
971,12024764,1994,623,2583,-347,2339,129
972,12024774,2277,542,3139,-699,320,993
973,12024784,2413,209,3753,-580,-2445,1906
974,12024794,1949,-153,4155,-1113,-6246,2881
975,12024804,1056,-226,4170,-2342,-10528,3222
976,12024814,62,-146,4228,-3154,-14522,2703
977,12024824,-981,67,4218,-2690,-17984,1613
978,12024834,-1963,308,4521,-1792,-20683,709
979,12024844,-3132,90,3850,-829,-23033,145
980,12024854,-3787,-397,2666,264,-23915,-631
981,12024864,-3618,-794,1653,1447,-22547,-889
982,12024874,-3353,-921,1364,2189,-19918,-526
983,12024884,-3580,-904,741,2125,-17565,-123
984,12024894,-3423,-920,745,1834,-15683,221
985,12024904,-4170,-947,143,673,-14210,238
986,12024914,-4946,-766,-884,17,-13252,138
987,12024924,-5560,-718,-1820,-487,-11995,0
988,12024920,-5560,-719,-1820,-486,-11995,251
989,12024930,-5683,-631,-2369,-443,-9898,84
990,12024940,-5168,-382,-2188,-175,-7235,-358
991,12024950,-4381,5,-1480,63,-4570,-789
992,12024960,-3639,185,-801,59,-2502,-853
993,12024970,-3161,467,-387,-263,-1176,-485
994,12024980,-3041,564,-154,-120,-275,79
995,12024990,-3033,389,77,173,482,713
996,12025000,-3132,175,231,281,1010,1255
997,12025010,-3240,33,170,187,1212,1560
998,12025020,-3498,-268,-171,-107,1256,1706
999,12025030,-3930,-489,-660,-269,1430,1563
1000,12025040,-4423,-779,-1097,-271,1988,1008
1001,12025050,-4908,-1003,-1583,-22,2570,125
1002,12025060,-5216,-1024,-2133,80,3249,-981
1003,12025070,-5234,-742,-2416,89,4385,-2201
1004,12025080,-4942,-447,-2409,292,5993,-2747
1005,12025090,-4928,-659,-2290,1032,7313,-2588
1006,12025100,-4708,-833,-2250,1096,8198,-2419
1007,12025110,-4609,-981,-2160,930,9127,-2239
1008,12025120,-4505,-906,-2179,545,10238,-2266
1009,12025130,-4369,-810,-2058,478,11851,-2446
1010,12025140,-4330,-836,-1519,672,13755,-2628
1011,12025150,-3810,-980,-890,762,15216,-2897
1012,12025160,-3406,-903,-495,450,15776,-2875
1013,12025170,-2768,-782,-102,349,15608,-3073
1014,12025167,-2767,-783,-102,349,15608,-2819
1015,12025177,-1986,-705,134,429,14828,-2877
1016,12025187,-1327,-236,67,44,13209,-2834
1017,12025197,-841,-89,-373,300,11867,-2538
1018,12025207,-663,26,-462,362,10900,-1667
1019,12025217,-260,145,-396,861,9711,-1334
1020,12025227,-253,42,-204,1004,8499,-905
1021,12025237,-125,-228,39,1637,7840,-599
1022,12025247,-70,-296,15,1509,7152,-431
1023,12025257,26,-212,150,981,6644,-62
1024,12025267,170,-352,528,1204,6157,167
1025,12025277,481,-437,1087,1394,5768,100
1026,12025287,1212,-689,2141,1641,5245,48
1027,12025297,1983,-1081,3341,1730,4425,-60
1028,12025307,2526,-815,3794,719,3499,-194
1029,12025317,2511,-470,3810,-722,2088,-139
1030,12025327,2429,-62,3573,-2396,373,251
1031,12025337,1800,252,3123,-3257,-2119,833
1032,12025347,1687,189,3470,-2955,-4601,1168
1033,12025357,1184,15,3919,-2762,-7495,1722
1034,12025367,358,174,4077,-3437,-11057,2256
1035,12025377,-965,145,4053,-3544,-14902,2260
1036,12025387,-2204,408,3471,-3608,-17880,1651
1037,12025397,-3076,690,3008,-3257,-19613,1015
1038,12025407,-3589,589,2428,-2106,-20477,169
1039,12025417,-3862,277,2045,-673,-20534,-256
1040,12025414,-3861,277,2046,-672,-20534,-211
1041,12025424,-3848,-24,1800,388,-19719,-340
1042,12025434,-3923,-167,1715,740,-18301,-221
1043,12025444,-4295,-136,1727,484,-16863,-10
1044,12025454,-4855,24,1453,76,-15645,56
1045,12025464,-5644,-55,703,-666,-14788,270
1046,12025474,-6443,28,-711,-1500,-14322,647
1047,12025484,-7289,-229,-2362,-1709,-13525,1105
1048,12025494,-7382,-394,-3341,-509,-11776,804
1049,12025504,-6738,-309,-3258,1026,-8735,308
1050,12025514,-5676,-284,-2182,2319,-5323,-304
1051,12025524,-4847,-197,-1027,2570,-2184,-752
1052,12025534,-4289,-295,-453,1589,-334,-661
1053,12025544,-4002,-341,-283,242,353,-314
1054,12025554,-3743,-188,-310,-626,737,-181
1055,12025564,-3655,-19,-328,-821,1094,-203
1056,12025574,-3527,70,-354,-595,1318,-194
1057,12025584,-3498,-200,-316,-27,1286,-132
1058,12025594,-3574,-422,-468,225,1109,-69
1059,12025604,-3714,-588,-741,282,938,-49
1060,12025614,-4059,-979,-1215,270,876,-262
1061,12025624,-4425,-1143,-1864,124,1272,-662
1062,12025634,-4604,-1271,-2274,269,2405,-1428
1063,12025644,-4477,-1054,-2354,383,4116,-2477
1064,12025654,-4425,-966,-2295,702,5949,-3267
1065,12025664,-4186,-837,-1967,1037,7571,-4098
1066,12025660,-4185,-838,-1967,1038,7571,-3884
1067,12025670,-3898,-622,-1672,1128,8860,-4162
1068,12025680,-3687,-625,-1488,994,9623,-4004
1069,12025690,-3587,-552,-1432,498,10229,-3534
1070,12025700,-3554,-446,-1469,131,11118,-3131
1071,12025710,-3581,-503,-1338,-222,12466,-2839
1072,12025720,-3571,-279,-1108,-595,14112,-2422
1073,12025730,-3324,-468,-527,-264,15893,-2175
1074,12025740,-2539,-488,349,142,16882,-1719
1075,12025750,-1641,-737,814,893,16270,-1186
1076,12025760,-731,-477,588,230,14058,-1219
1077,12025770,-474,-76,-3,-562,11192,-1006
1078,12025780,-578,149,-520,-470,9306,-165
1079,12025790,-353,-135,-384,352,8310,152
1080,12025800,-124,-533,-266,1254,8023,103
1081,12025810,49,-484,24,665,7385,385
1082,12025820,202,-568,385,472,6453,594
1083,12025830,601,-656,1046,283,5558,611
1084,12025840,1174,-903,1653,169,4886,725
1085,12025850,1686,-1225,2523,-84,4215,1045
1086,12025860,2311,-1232,3231,-713,3490,809
1087,12025870,2558,-1067,3680,-1687,2536,630
1088,12025880,2414,-534,3299,-3298,727,958
1089,12025890,2041,-216,3356,-3823,-2763,1154
1090,12025900,1260,-141,3695,-4014,-7030,1744
1091,12025910,259,34,3646,-4712,-11180,2049
